time_seconds,acc_x,acc_y,acc_z,q_w,q_x,q_y,q_z
0.0154,0.3,0.43,1.0,0.71,0.61,-0.24,-0.24
0.0561,2.46,2.78,1.05,0.71,0.61,-0.26,-0.24
0.0753,2.94,-2.74,1.55,0.69,0.62,-0.29,-0.25
0.0953,3.2,-1.45,1.71,0.68,0.62,-0.3,-0.26
0.1153,2.23,1.72,1.74,0.67,0.62,-0.31,-0.27
0.1363,1.04,0.67,2.05,0.66,0.62,-0.34,-0.28
0.2041,0.74,-2.0,1.93,0.64,0.61,-0.36,-0.29
0.2163,0.27,-1.72,3.22,0.61,0.6,-0.42,-0.33
0.2384,0.27,-2.09,3.27,0.59,0.59,-0.43,-0.33
0.2781,0.83,-3.37,2.23,0.58,0.59,-0.45,-0.34
0.2963,0.42,-0.88,2.91,0.56,0.59,-0.46,-0.36
0.3163,-0.53,-1.89,2.67,0.55,0.58,-0.47,-0.37
0.3363,-1.21,-1.71,1.8,0.54,0.58,-0.48,-0.37
0.3564,-1.12,-1.26,1.73,0.53,0.58,-0.49,-0.38
0.3763,0.15,-2.05,2.67,0.52,0.57,-0.5,-0.38
0.3964,0.87,-1.87,2.89,0.51,0.57,-0.51,-0.39
0.419,1.11,-2.24,2.83,0.51,0.57,-0.52,-0.39
0.4353,0.34,-1.86,3.03,0.5,0.57,-0.52,-0.4
0.4563,-0.15,-0.88,3.13,0.5,0.56,-0.53,-0.4
0.4753,0.57,-0.97,2.84,0.49,0.56,-0.53,-0.4
0.4964,1.27,-1.41,2.1,0.49,0.56,-0.53,-0.4
0.5191,1.2,-1.58,1.43,0.49,0.56,-0.53,-0.4
0.5363,0.16,0.02,1.27,0.49,0.56,-0.53,-0.4
0.5569,-0.19,0.29,1.15,0.49,0.56,-0.53,-0.4
0.577,0.27,0.0,0.45,0.49,0.56,-0.54,-0.4
0.5965,-0.08,-0.3,-0.02,0.49,0.56,-0.54,-0.4
0.6404,0.07,-0.07,-0.06,0.49,0.56,-0.53,-0.41
0.6564,-0.02,0.48,-0.21,0.49,0.56,-0.53,-0.41
0.6766,-0.41,0.12,-0.11,0.49,0.56,-0.54,-0.41
0.6963,0.13,0.18,-0.19,0.48,0.56,-0.54,-0.41
0.7164,0.48,-0.12,0.56,0.48,0.56,-0.54,-0.41
0.7463,1.06,-0.74,1.26,0.48,0.56,-0.54,-0.41
0.7669,2.89,-1.54,2.18,0.48,0.56,-0.53,-0.41
0.8441,4.53,-2.21,3.51,0.48,0.56,-0.53,-0.41
0.8553,5.93,-2.71,4.14,0.51,0.57,-0.5,-0.42
0.8763,6.0,-3.34,4.11,0.53,0.57,-0.48,-0.42
0.9061,5.83,-3.45,3.43,0.54,0.56,-0.46,-0.42
0.9263,3.36,-2.46,2.89,0.58,0.55,-0.43,-0.42
0.9463,2.25,-2.62,2.5,0.6,0.54,-0.41,-0.42
0.9667,0.67,-4.63,2.06,0.62,0.54,-0.38,-0.42
1.0281,0.18,-3.52,0.18,0.66,0.52,-0.34,-0.42
1.0467,-1.46,-1.11,-1.34,0.72,0.5,-0.25,-0.41
1.0767,-3.76,-1.25,-2.99,0.75,0.48,-0.2,-0.41
1.1222,-5.62,1.23,-2.8,0.77,0.46,-0.16,-0.4
1.1414,-4.1,0.47,-2.34,0.81,0.43,-0.12,-0.38
1.1564,-4.2,-1.17,-2.57,0.82,0.42,-0.11,-0.37
1.1763,-4.89,0.06,-2.48,0.83,0.41,-0.1,-0.36
1.1964,-4.87,1.28,-2.34,0.84,0.41,-0.09,-0.34
1.2163,-3.85,0.38,-2.32,0.85,0.41,-0.09,-0.33
1.2418,-3.31,-0.86,-3.3,0.85,0.41,-0.1,-0.32
1.3232,-2.31,-2.2,-3.89,0.85,0.41,-0.1,-0.31
1.3464,-0.29,-0.64,-5.77,0.83,0.47,-0.13,-0.28
1.3663,-0.02,0.39,-5.88,0.82,0.49,-0.13,-0.27
1.3908,0.46,-0.51,-5.91,0.81,0.5,-0.15,-0.26
1.4704,0.32,-2.36,-6.33,0.81,0.52,-0.15,-0.25
1.4863,2.56,-3.28,-8.05,0.76,0.59,-0.18,-0.22
1.5067,2.62,-2.05,-7.81,0.74,0.61,-0.18,-0.21
1.5744,3.06,-0.98,-7.16,0.73,0.63,-0.18,-0.2
1.5866,4.15,-1.35,-7.07,0.7,0.66,-0.2,-0.19
1.6074,3.74,-0.97,-6.14,0.69,0.67,-0.2,-0.19
1.6563,3.51,0.86,-6.48,0.69,0.66,-0.21,-0.19
1.6776,0.15,-1.35,-0.41,0.69,0.65,-0.25,-0.2
1.7024,1.54,-0.47,-1.16,0.68,0.66,-0.26,-0.2
1.7177,2.13,0.39,-0.43,0.67,0.66,-0.27,-0.21
1.7365,2.46,-0.78,0.61,0.66,0.66,-0.29,-0.21
1.7577,1.98,-1.24,1.3,0.65,0.66,-0.3,-0.21
1.8151,0.72,-0.98,1.37,0.64,0.66,-0.32,-0.21
1.8302,3.6,-2.17,2.11,0.62,0.67,-0.36,-0.22
1.8472,3.3,-1.54,3.01,0.61,0.67,-0.37,-0.22
1.875,2.32,-1.02,3.42,0.6,0.67,-0.39,-0.23
1.8973,1.87,-0.69,3.71,0.58,0.66,-0.41,-0.24
1.935,2.3,-1.89,3.59,0.57,0.66,-0.43,-0.24
1.9506,1.28,-1.96,3.29,0.56,0.66,-0.44,-0.25
1.9673,-0.18,-0.27,3.05,0.55,0.66,-0.45,-0.26
2.0371,-0.4,0.02,2.91,0.54,0.65,-0.46,-0.27
2.0573,0.25,0.15,1.75,0.51,0.64,-0.49,-0.29
2.0823,0.53,-0.48,1.99,0.51,0.63,-0.5,-0.3
2.0973,1.32,-1.34,1.7,0.5,0.63,-0.51,-0.31
2.1174,0.32,-0.24,0.88,0.5,0.63,-0.51,-0.31
2.1403,-0.64,0.16,0.68,0.49,0.62,-0.52,-0.32
2.1572,0.27,-1.02,1.27,0.49,0.62,-0.53,-0.32
2.1775,1.54,-1.95,1.42,0.48,0.61,-0.53,-0.33
2.2471,1.69,-0.2,1.38,0.48,0.61,-0.53,-0.34
2.2677,4.17,-2.21,3.73,0.47,0.61,-0.54,-0.35
2.2878,4.84,-2.79,2.71,0.47,0.61,-0.53,-0.35
2.3534,4.75,-0.87,3.58,0.47,0.62,-0.51,-0.36
2.3674,4.61,-1.2,3.46,0.49,0.63,-0.48,-0.36
2.3873,3.5,-2.16,2.78,0.51,0.63,-0.46,-0.37
2.4102,2.23,-2.91,2.48,0.52,0.62,-0.44,-0.38
2.4273,1.48,-2.77,2.73,0.54,0.62,-0.42,-0.38
2.4472,1.87,-2.39,1.84,0.56,0.62,-0.39,-0.38
2.4692,1.25,-0.75,1.56,0.58,0.61,-0.37,-0.39
2.4881,0.93,-0.96,1.36,0.61,0.6,-0.34,-0.39
2.5491,0.79,-2.27,2.39,0.64,0.58,-0.31,-0.4
2.568,-2.55,-0.6,-0.01,0.71,0.52,-0.21,-0.42
2.5893,-4.35,-0.44,1.64,0.74,0.5,-0.18,-0.42
2.6073,-3.7,-1.43,1.75,0.76,0.48,-0.16,-0.42
2.6284,-2.97,-1.57,1.11,0.77,0.46,-0.14,-0.41
2.6571,-4.02,1.07,-0.83,0.79,0.45,-0.12,-0.41
2.6773,-6.31,0.87,-1.21,0.81,0.42,-0.11,-0.39
2.6973,-6.68,-2.9,-1.2,0.82,0.42,-0.11,-0.37
2.7173,-5.7,-2.78,-2.59,0.83,0.42,-0.1,-0.36
2.7378,-4.14,-0.76,-4.11,0.83,0.42,-0.1,-0.35
2.8191,-4.02,-0.67,-4.34,0.83,0.43,-0.11,-0.35
2.8373,-1.2,-1.91,-6.4,0.81,0.48,-0.15,-0.3
2.8573,-1.57,0.32,-6.17,0.8,0.5,-0.15,-0.29
2.9211,-0.01,1.17,-6.77,0.8,0.51,-0.16,-0.28
2.9372,4.72,-0.1,-6.67,0.77,0.56,-0.18,-0.25
2.9573,4.0,-0.32,-4.78,0.76,0.57,-0.19,-0.24
2.9802,3.61,-2.59,-5.16,0.75,0.58,-0.19,-0.24
3.003,3.64,-0.84,-5.65,0.74,0.6,-0.19,-0.24
3.0831,3.26,1.69,-5.53,0.74,0.61,-0.19,-0.23
3.0973,3.79,-0.32,-7.78,0.73,0.62,-0.19,-0.23
3.1172,1.0,0.67,-8.28,0.73,0.62,-0.19,-0.23
3.1404,0.62,-0.82,-7.59,0.72,0.62,-0.19,-0.24
3.1572,1.58,-1.05,-6.21,0.72,0.62,-0.2,-0.24
3.1773,-0.41,0.93,-4.96,0.72,0.61,-0.2,-0.25
3.1991,-1.51,0.36,-4.61,0.73,0.61,-0.21,-0.25
3.2722,-2.39,-0.23,-1.73,0.72,0.61,-0.21,-0.25
3.2882,0.27,0.75,-0.12,0.69,0.61,-0.27,-0.27
3.3112,-0.4,-0.88,2.05,0.68,0.62,-0.29,-0.27
3.332,0.36,-0.47,2.41,0.67,0.62,-0.31,-0.27
3.3494,2.05,-1.15,2.74,0.66,0.63,-0.33,-0.27
3.3685,3.87,-2.24,2.91,0.64,0.63,-0.34,-0.27
3.4385,2.93,-2.38,3.04,0.62,0.64,-0.35,-0.27
3.4587,2.59,-0.34,1.98,0.57,0.66,-0.4,-0.28
3.5051,1.7,-0.34,2.53,0.56,0.65,-0.42,-0.28
3.5185,1.49,-2.95,1.83,0.53,0.65,-0.45,-0.29
3.5382,3.0,-1.0,1.99,0.52,0.65,-0.47,-0.3
3.5582,3.92,-0.73,2.23,0.51,0.64,-0.48,-0.3
3.5791,2.5,-2.36,2.79,0.5,0.64,-0.5,-0.31
3.6052,1.18,-3.2,2.78,0.5,0.63,-0.5,-0.31
3.6182,0.35,-1.21,2.42,0.49,0.63,-0.51,-0.31
3.6382,-0.34,1.78,1.75,0.49,0.63,-0.51,-0.32
3.6682,0.8,-1.53,0.96,0.48,0.62,-0.53,-0.32
3.6891,0.52,-0.37,0.86,0.47,0.62,-0.53,-0.32
3.7601,-0.06,1.64,1.66,0.47,0.62,-0.54,-0.33
3.7839,-0.02,-2.74,3.38,0.46,0.6,-0.55,-0.35
3.8631,0.47,-0.49,2.65,0.46,0.6,-0.55,-0.36
3.8782,3.44,-2.64,3.26,0.46,0.59,-0.55,-0.36
3.8982,4.19,-1.85,3.07,0.46,0.6,-0.55,-0.36
3.9184,4.42,-1.53,3.06,0.47,0.6,-0.54,-0.36
3.9383,4.98,-1.82,2.57,0.47,0.61,-0.52,-0.36
3.9672,5.31,-2.48,1.93,0.48,0.62,-0.51,-0.37
3.9782,6.33,-2.61,1.79,0.48,0.62,-0.49,-0.37
3.9983,5.66,-2.09,2.17,0.5,0.63,-0.47,-0.36
4.0311,5.3,-0.16,2.07,0.51,0.63,-0.45,-0.36
4.0482,3.21,-0.51,2.48,0.54,0.63,-0.42,-0.37
4.0682,1.45,-1.4,1.72,0.56,0.63,-0.39,-0.37
4.0882,1.59,-2.86,1.71,0.58,0.63,-0.37,-0.37
4.1151,2.32,-1.96,0.87,0.59,0.63,-0.35,-0.36
4.1283,1.73,-1.93,-0.04,0.61,0.63,-0.32,-0.36
4.1482,0.74,-2.63,-0.35,0.63,0.62,-0.29,-0.36
4.1715,-1.32,-2.47,-0.95,0.65,0.61,-0.26,-0.36
4.1919,-1.16,-1.79,-0.95,0.67,0.6,-0.23,-0.36
4.2738,-2.48,-0.09,-1.25,0.69,0.59,-0.2,-0.36
4.2903,-3.95,0.65,-1.35,0.76,0.54,-0.1,-0.36
4.3085,-4.42,0.89,-1.46,0.77,0.52,-0.08,-0.37
4.3311,-5.53,1.91,-2.03,0.78,0.51,-0.06,-0.37
4.3482,-6.21,1.65,-1.82,0.79,0.49,-0.06,-0.36
4.3702,-6.04,-3.23,-1.61,0.81,0.47,-0.06,-0.36
4.3884,-5.63,-3.61,-1.84,0.81,0.46,-0.06,-0.35
4.4151,-3.63,-0.94,-2.52,0.82,0.46,-0.06,-0.34
4.4282,-1.79,1.27,-2.97,0.82,0.46,-0.07,-0.33
4.4482,-2.79,0.12,-3.61,0.83,0.46,-0.09,-0.31
4.4711,-2.83,-6.01,-3.48,0.83,0.46,-0.1,-0.3
4.4892,-2.64,-3.89,-4.14,0.82,0.48,-0.1,-0.3
4.5086,-0.59,2.15,-4.83,0.81,0.49,-0.1,-0.3
4.5823,-0.4,0.63,-5.71,0.81,0.5,-0.11,-0.29
4.5984,4.1,1.18,-6.53,0.78,0.57,-0.14,-0.25
4.6242,5.19,-2.98,-5.92,0.77,0.58,-0.15,-0.23
4.6492,5.21,-3.73,-6.08,0.75,0.61,-0.14,-0.23
4.6681,4.49,0.39,-5.21,0.74,0.62,-0.14,-0.23
4.69,3.95,0.2,-5.25,0.73,0.63,-0.14,-0.22
4.7086,3.2,-2.04,-5.75,0.72,0.64,-0.14,-0.22
4.7282,2.09,-1.97,-6.34,0.71,0.65,-0.15,-0.22
4.8003,-0.27,-2.18,-6.24,0.71,0.65,-0.15,-0.22
4.8181,0.86,0.86,-5.4,0.68,0.68,-0.16,-0.22
4.8385,2.34,1.47,-5.45,0.68,0.68,-0.16,-0.22
4.9084,2.53,0.27,-3.7,0.67,0.68,-0.18,-0.22
4.9184,0.49,1.09,-2.3,0.67,0.67,-0.22,-0.22
4.9386,2.48,1.05,-1.24,0.67,0.67,-0.24,-0.23
5.016,2.95,0.39,-0.62,0.67,0.66,-0.26,-0.23
5.045,2.32,-1.3,3.19,0.65,0.63,-0.34,-0.25
5.1231,3.64,-1.7,3.16,0.64,0.63,-0.36,-0.26
5.1392,3.37,-1.5,3.54,0.61,0.62,-0.42,-0.28
5.1635,1.86,-1.69,3.05,0.6,0.61,-0.43,-0.28
5.1851,-0.62,-1.76,3.78,0.59,0.61,-0.44,-0.29
5.1992,-1.55,-1.64,4.58,0.59,0.61,-0.44,-0.3
5.2192,-1.12,-0.82,4.2,0.58,0.61,-0.45,-0.3
5.2461,0.21,-1.25,3.84,0.57,0.6,-0.46,-0.31
5.2592,0.36,-2.34,4.0,0.57,0.6,-0.47,-0.31
5.2792,-1.11,0.77,4.12,0.56,0.6,-0.47,-0.32
5.3022,-2.63,1.15,4.29,0.55,0.6,-0.47,-0.33
5.3192,-2.06,-0.18,3.33,0.55,0.6,-0.48,-0.34
5.3442,-0.4,-1.25,2.91,0.54,0.6,-0.48,-0.34
5.364,2.98,-2.0,2.33,0.54,0.6,-0.49,-0.34
5.3797,2.58,-0.73,2.64,0.54,0.59,-0.48,-0.35
5.3994,0.68,0.41,2.09,0.54,0.59,-0.48,-0.35
5.4194,-0.63,-0.03,1.96,0.55,0.59,-0.48,-0.36
5.4395,-0.92,-0.16,1.94,0.55,0.58,-0.48,-0.36
5.4596,2.1,-1.48,1.39,0.55,0.58,-0.48,-0.36
5.4794,3.57,-2.0,1.18,0.56,0.58,-0.47,-0.36
5.4997,2.31,-1.49,2.23,0.57,0.58,-0.46,-0.37
5.5195,1.18,-0.97,2.64,0.57,0.57,-0.45,-0.37
5.5397,3.3,-0.55,2.71,0.58,0.57,-0.44,-0.38
5.6171,4.78,-1.3,2.33,0.59,0.57,-0.42,-0.38
5.6292,2.89,-0.59,2.96,0.64,0.56,-0.32,-0.41
5.6491,2.33,2.29,2.28,0.66,0.56,-0.29,-0.41
5.6721,2.63,1.22,1.35,0.68,0.54,-0.27,-0.42
5.6891,1.17,-1.21,1.09,0.7,0.53,-0.24,-0.42
5.7181,-0.58,-2.35,0.86,0.72,0.5,-0.22,-0.43
5.7292,-1.44,-1.37,0.55,0.73,0.48,-0.2,-0.43
5.7498,-1.92,-0.42,0.57,0.75,0.47,-0.18,-0.43
5.8291,-2.52,-1.75,0.55,0.77,0.45,-0.16,-0.43
5.8517,-4.02,0.32,0.33,0.81,0.38,-0.08,-0.43
5.9235,-3.89,0.3,-0.29,0.82,0.37,-0.07,-0.43
5.9396,-4.58,-2.07,-3.26,0.85,0.35,-0.08,-0.39
5.9646,-6.0,-0.32,-2.63,0.85,0.35,-0.09,-0.38
6.0011,-5.03,-0.46,-3.22,0.86,0.35,-0.1,-0.36
6.0192,-1.82,-4.09,-4.27,0.86,0.38,-0.13,-0.33
6.0392,-1.72,-1.93,-5.64,0.85,0.39,-0.13,-0.33
6.0661,-1.61,0.85,-5.31,0.84,0.41,-0.13,-0.32
6.0827,-1.15,-0.09,-5.99,0.84,0.43,-0.14,-0.31
6.0992,-0.9,-1.74,-4.96,0.83,0.44,-0.15,-0.3
6.1231,1.12,0.36,-6.13,0.82,0.46,-0.16,-0.28
6.1396,1.61,1.17,-5.91,0.82,0.48,-0.18,-0.27
6.1591,2.09,-1.42,-5.5,0.81,0.49,-0.2,-0.25
6.188,1.51,-2.9,-5.33,0.8,0.51,-0.21,-0.24
6.1991,1.14,-1.43,-5.34,0.79,0.53,-0.21,-0.23
6.2198,0.7,0.78,-4.78,0.78,0.54,-0.22,-0.22
6.2971,1.91,0.21,-4.27,0.77,0.56,-0.22,-0.21
6.3091,4.45,-0.15,-4.93,0.75,0.59,-0.24,-0.19
6.3296,3.16,-0.64,-4.64,0.74,0.59,-0.24,-0.19
6.3952,1.77,-0.39,-5.12,0.74,0.6,-0.24,-0.19
6.4193,2.68,-1.91,-5.66,0.73,0.62,-0.24,-0.18
6.4565,2.02,-1.98,-5.49,0.73,0.62,-0.23,-0.18
6.4701,2.9,1.2,-4.89,0.72,0.63,-0.22,-0.18
6.4891,0.48,0.82,-3.81,0.72,0.63,-0.23,-0.18
6.5261,-1.09,-0.46,-2.68,0.72,0.63,-0.24,-0.19
6.5402,2.03,-0.06,-1.8,0.7,0.63,-0.25,-0.19
6.5651,2.72,0.34,-1.31,0.7,0.63,-0.27,-0.19
6.5951,0.64,-2.8,-0.28,0.69,0.63,-0.29,-0.2
6.6101,1.0,-2.03,2.05,0.68,0.63,-0.31,-0.21
6.6292,1.42,-0.46,0.83,0.66,0.64,-0.32,-0.21
6.6631,3.16,-0.93,1.34,0.65,0.64,-0.34,-0.22
6.6854,2.79,-0.97,3.43,0.63,0.65,-0.36,-0.22
6.7005,2.51,-0.8,5.64,0.62,0.64,-0.38,-0.23
6.7204,2.08,-0.02,6.68,0.61,0.64,-0.39,-0.24
6.7407,2.05,-0.83,6.71,0.61,0.64,-0.41,-0.25
6.7601,1.81,-1.0,6.36,0.6,0.64,-0.41,-0.26
6.8301,1.44,-1.64,5.68,0.59,0.63,-0.42,-0.27
6.8393,-0.22,-0.57,0.81,0.57,0.62,-0.44,-0.31
6.8603,-0.59,-1.73,1.21,0.57,0.62,-0.44,-0.32
6.9011,-1.03,-0.73,0.99,0.56,0.62,-0.45,-0.33
6.9204,-1.91,0.75,0.57,0.55,0.61,-0.46,-0.34
6.9401,-1.71,-1.77,2.37,0.54,0.6,-0.47,-0.35
6.9712,-0.47,-2.84,2.45,0.54,0.6,-0.48,-0.35
6.9921,-0.24,-0.55,2.03,0.53,0.6,-0.49,-0.36
7.0091,-0.57,-0.35,2.48,0.53,0.59,-0.49,-0.36
7.0301,-0.18,-0.62,3.72,0.52,0.59,-0.5,-0.36
7.0501,1.49,-1.12,3.83,0.52,0.59,-0.5,-0.36
7.0702,3.2,-1.0,5.03,0.52,0.59,-0.5,-0.36
7.1151,4.68,-0.96,5.34,0.53,0.59,-0.49,-0.36
7.1301,5.06,-0.9,5.59,0.54,0.6,-0.47,-0.37
7.1501,7.01,-2.23,4.94,0.55,0.6,-0.45,-0.38
7.1735,7.03,-3.12,3.16,0.56,0.6,-0.43,-0.38
7.1901,4.75,-2.6,3.11,0.57,0.6,-0.4,-0.39
7.2103,1.74,-0.81,2.95,0.59,0.59,-0.37,-0.41
7.2303,0.68,-0.14,3.84,0.61,0.58,-0.35,-0.41
7.2524,2.08,-1.99,2.0,0.63,0.57,-0.33,-0.41
7.3254,2.12,-2.16,1.41,0.65,0.56,-0.31,-0.4
7.3405,-2.14,-2.04,1.81,0.72,0.52,-0.25,-0.39
7.3609,-1.67,-1.6,-0.34,0.73,0.51,-0.24,-0.38
7.4322,-2.09,-1.44,-0.78,0.75,0.51,-0.22,-0.37
7.4502,-4.86,-1.8,-0.21,0.78,0.49,-0.16,-0.35
7.4704,-4.55,-0.8,-0.69,0.79,0.49,-0.15,-0.34
7.5011,-4.89,2.16,-1.29,0.79,0.5,-0.14,-0.33
7.5204,-3.17,-3.01,-1.36,0.79,0.51,-0.15,-0.3
7.5404,-2.48,-5.19,-2.19,0.79,0.51,-0.14,-0.29
7.5602,-3.32,-1.16,-3.2,0.79,0.52,-0.13,-0.29
7.5931,-4.15,1.66,-3.4,0.79,0.52,-0.12,-0.29
7.6101,-3.56,-0.15,-4.38,0.79,0.53,-0.13,-0.27
7.6302,-1.54,-3.43,-4.84,0.79,0.54,-0.14,-0.25
7.6631,-1.44,-2.61,-6.18,0.78,0.56,-0.14,-0.25
7.6802,-0.71,-1.61,-7.12,0.77,0.58,-0.14,-0.25
7.7005,-0.32,-0.72,-7.54,0.76,0.59,-0.14,-0.24
7.7761,0.36,-0.84,-7.17,0.75,0.6,-0.14,-0.23
7.7901,3.16,-2.05,-6.71,0.73,0.64,-0.14,-0.2
7.8135,2.75,-0.77,-6.71,0.72,0.65,-0.14,-0.2
7.8582,2.22,0.21,-5.9,0.71,0.66,-0.14,-0.19
7.8711,1.7,-1.26,-5.88,0.71,0.67,-0.14,-0.18
7.8901,1.01,-0.47,-5.05,0.7,0.67,-0.14,-0.18
7.9206,1.16,0.21,-4.38,0.7,0.67,-0.15,-0.18
7.9404,1.66,0.67,-4.3,0.7,0.68,-0.15,-0.19
8.0124,2.16,0.46,-4.35,0.69,0.68,-0.16,-0.19
8.0317,0.58,-0.39,-1.86,0.68,0.68,-0.2,-0.2
8.0544,2.89,-0.75,-0.79,0.67,0.68,-0.21,-0.21
8.0718,2.91,-0.8,-0.23,0.66,0.68,-0.23,-0.22
8.1431,1.81,-1.2,0.88,0.66,0.68,-0.25,-0.22
8.1662,3.99,-0.2,2.83,0.62,0.69,-0.29,-0.25
8.2153,1.29,-0.97,2.99,0.61,0.69,-0.31,-0.25
8.2313,1.5,-0.95,4.04,0.58,0.69,-0.34,-0.26
8.2513,1.27,-0.32,3.73,0.57,0.69,-0.35,-0.27
8.2713,-0.09,-1.63,3.18,0.57,0.69,-0.36,-0.28
8.2948,-0.3,-1.5,3.16,0.56,0.69,-0.37,-0.28
8.3752,0.39,-0.45,2.46,0.55,0.69,-0.38,-0.29
8.3913,-0.72,-0.81,1.83,0.53,0.68,-0.41,-0.3
8.4118,0.13,-0.74,1.73,0.52,0.68,-0.41,-0.3
8.4314,1.22,-0.38,1.61,0.52,0.68,-0.42,-0.31
8.4519,0.71,0.39,1.95,0.51,0.68,-0.42,-0.31
8.5273,-0.47,1.02,1.67,0.51,0.68,-0.43,-0.31
8.5516,0.83,0.7,1.63,0.5,0.68,-0.45,-0.31
8.6271,0.37,1.2,1.73,0.5,0.68,-0.45,-0.31
8.6512,5.8,-3.31,1.52,0.49,0.66,-0.47,-0.32
8.7001,6.62,-1.99,2.47,0.49,0.67,-0.46,-0.32
8.7264,8.05,-0.53,3.84,0.51,0.66,-0.43,-0.35
8.7471,4.88,-2.91,4.46,0.53,0.65,-0.4,-0.37
8.761,2.87,-3.88,4.2,0.55,0.65,-0.37,-0.38
8.7833,0.77,-1.23,3.09,0.58,0.63,-0.33,-0.39
8.8013,-1.1,0.15,3.42,0.61,0.62,-0.29,-0.41
8.8232,-0.22,-1.74,2.99,0.64,0.6,-0.25,-0.42
8.8701,-0.83,-1.19,1.62,0.67,0.58,-0.21,-0.42
8.8933,-4.96,-0.68,1.29,0.73,0.51,-0.13,-0.43
8.9361,-5.14,-1.52,1.41,0.76,0.49,-0.1,-0.42
8.951,0.21,-0.63,-0.42,0.79,0.46,-0.06,-0.41
8.9731,-2.86,0.64,-1.47,0.8,0.44,-0.04,-0.4
9.0072,-5.18,-0.96,-1.04,0.82,0.43,-0.03,-0.39
9.0211,-5.1,-1.18,-0.89,0.83,0.42,-0.03,-0.36
9.0411,-3.22,0.24,-1.64,0.84,0.42,-0.03,-0.34
9.0761,-1.89,-0.52,-2.69,0.84,0.43,-0.04,-0.32
9.0911,-0.1,-2.86,-2.67,0.85,0.43,-0.06,-0.3
9.1111,-2.64,-0.91,-3.2,0.84,0.44,-0.06,-0.29
9.1502,-4.61,-1.68,-3.36,0.84,0.46,-0.07,-0.29
9.1611,-3.24,-1.52,-4.48,0.81,0.5,-0.07,-0.29
9.1862,1.18,-0.57,-6.36,0.8,0.53,-0.08,-0.28
9.2331,1.65,-0.96,-6.83,0.79,0.54,-0.08,-0.28
9.2511,-1.27,-0.84,-6.5,0.76,0.59,-0.11,-0.25
9.273,2.21,-3.16,-8.38,0.74,0.61,-0.12,-0.24
9.3171,2.12,-3.09,-8.31,0.73,0.63,-0.13,-0.24
9.3311,1.46,-0.84,-8.15,0.71,0.65,-0.13,-0.24
9.3521,0.78,-0.6,-7.84,0.7,0.66,-0.14,-0.24
9.3747,0.71,-0.53,-7.44,0.69,0.67,-0.14,-0.23
9.4541,1.5,-0.89,-7.29,0.68,0.68,-0.15,-0.23
9.472,1.09,0.58,-3.69,0.65,0.7,-0.17,-0.23
9.491,1.67,0.25,-3.57,0.65,0.7,-0.18,-0.23
9.534,1.75,0.25,-2.81,0.64,0.7,-0.19,-0.23
9.5527,1.88,-0.72,-0.78,0.63,0.71,-0.21,-0.24
9.5821,1.68,-0.13,-0.76,0.62,0.71,-0.23,-0.24
9.6121,2.93,-0.79,0.53,0.6,0.72,-0.24,-0.25
9.6311,4.09,-0.69,0.73,0.59,0.72,-0.27,-0.25
9.651,2.98,-1.05,1.32,0.57,0.72,-0.29,-0.25
9.6821,2.12,-1.97,2.64,0.56,0.72,-0.31,-0.26
9.7023,2.17,-1.88,3.01,0.54,0.73,-0.33,-0.25
9.7214,2.63,-0.51,2.41,0.52,0.74,-0.35,-0.25
9.7934,2.93,-0.83,2.71,0.51,0.74,-0.36,-0.26
9.8124,1.18,-0.38,3.84,0.48,0.73,-0.4,-0.27
9.8315,2.94,-0.65,3.22,0.47,0.73,-0.41,-0.27
9.8524,2.18,-0.98,3.55,0.46,0.73,-0.42,-0.28
9.8824,1.19,-0.93,3.18,0.45,0.73,-0.43,-0.29
9.9041,1.15,-0.2,2.95,0.45,0.72,-0.44,-0.29
9.9271,0.78,0.75,2.45,0.45,0.72,-0.44,-0.29
9.942,-0.23,-0.61,1.38,0.44,0.72,-0.45,-0.3
9.962,0.14,-1.48,1.42,0.44,0.72,-0.45,-0.3
10.005,1.21,-0.25,1.72,0.44,0.72,-0.45,-0.31
10.022,-0.77,1.31,1.61,0.43,0.71,-0.46,-0.31
10.042,-1.23,-0.46,2.05,0.44,0.7,-0.47,-0.32
10.0891,0.89,-1.45,1.78,0.44,0.7,-0.47,-0.32
10.1122,1.32,0.64,1.75,0.44,0.69,-0.47,-0.32
10.1671,0.7,-0.94,1.32,0.44,0.69,-0.47,-0.33
10.182,1.54,-0.07,0.71,0.44,0.69,-0.47,-0.33
10.201,1.0,0.24,0.64,0.44,0.69,-0.47,-0.34
10.247,0.32,-1.27,0.64,0.45,0.68,-0.47,-0.34
10.262,2.25,-0.18,1.25,0.45,0.69,-0.46,-0.34
10.282,3.29,0.05,1.67,0.46,0.69,-0.45,-0.34
10.3293,4.13,-1.62,2.36,0.46,0.69,-0.44,-0.34
10.342,5.8,-0.73,2.92,0.48,0.69,-0.42,-0.35
10.3621,5.96,-0.13,3.03,0.5,0.69,-0.4,-0.35
10.4094,5.82,-1.37,2.62,0.51,0.68,-0.38,-0.35
10.4246,1.82,-1.55,1.78,0.56,0.67,-0.33,-0.37
10.4423,0.23,-1.6,2.34,0.58,0.65,-0.31,-0.38
10.5125,-0.63,-1.35,0.8,0.6,0.64,-0.28,-0.38
10.5324,-2.11,-1.6,0.59,0.68,0.59,-0.19,-0.4
10.5521,-0.87,-0.83,0.36,0.69,0.58,-0.16,-0.4
10.584,-0.98,2.06,-0.97,0.71,0.57,-0.13,-0.4
10.6021,-2.18,2.12,-2.79,0.72,0.56,-0.12,-0.4
10.6222,-2.78,-0.59,-0.73,0.73,0.54,-0.11,-0.4
10.6715,-1.09,-3.16,-3.93,0.74,0.53,-0.1,-0.39
10.6925,-1.39,-0.46,-1.94,0.76,0.53,-0.08,-0.38
10.712,-2.68,-0.29,-2.29,0.76,0.53,-0.08,-0.37
10.7341,-3.29,-0.29,-2.52,0.77,0.53,-0.08,-0.36
10.7762,-3.77,-1.1,-2.27,0.77,0.53,-0.08,-0.35
10.7921,-2.07,-2.93,-3.25,0.77,0.54,-0.07,-0.34
10.812,-1.28,-1.5,-4.52,0.77,0.54,-0.07,-0.34
10.8531,-1.73,2.12,-3.85,0.77,0.55,-0.07,-0.33
10.8731,-0.36,-2.18,-4.59,0.77,0.56,-0.09,-0.3
10.8925,-0.76,-0.41,-4.57,0.77,0.56,-0.1,-0.29
10.9291,-0.71,0.2,-4.8,0.77,0.57,-0.11,-0.27
10.942,1.43,-3.39,-4.95,0.77,0.58,-0.11,-0.26
10.9625,0.27,-2.23,-4.61,0.76,0.59,-0.11,-0.26
10.9824,0.56,1.55,-4.84,0.75,0.6,-0.11,-0.26
11.0121,1.85,1.64,-6.12,0.74,0.61,-0.12,-0.25
11.0329,2.04,-0.36,-6.06,0.74,0.61,-0.14,-0.24
11.1121,1.7,-2.23,-6.48,0.73,0.62,-0.15,-0.24
11.1321,3.12,-1.14,-5.83,0.72,0.63,-0.18,-0.24
11.153,1.84,-0.47,-4.96,0.71,0.63,-0.19,-0.24
11.1772,0.4,-1.76,-3.92,0.71,0.63,-0.2,-0.24
11.1921,2.27,-3.13,-3.77,0.7,0.63,-0.21,-0.24
11.213,2.6,-1.33,-3.04,0.7,0.64,-0.22,-0.24
11.2321,0.64,0.59,-1.45,0.69,0.64,-0.23,-0.25
11.2771,0.32,-0.18,-0.64,0.69,0.64,-0.24,-0.25
11.2934,1.28,0.2,1.0,0.68,0.64,-0.27,-0.25
11.312,0.47,0.57,1.55,0.67,0.64,-0.29,-0.25
11.3551,1.05,-0.23,1.89,0.66,0.64,-0.3,-0.25
11.3729,0.72,-0.84,2.76,0.64,0.65,-0.33,-0.26
11.3929,1.02,-1.1,2.9,0.62,0.65,-0.34,-0.27
11.4433,1.16,-1.02,2.99,0.61,0.65,-0.35,-0.27
11.4625,2.23,-1.75,2.66,0.58,0.66,-0.38,-0.29
11.4836,2.2,-1.9,2.37,0.56,0.66,-0.39,-0.3
11.5052,-0.03,-0.42,2.4,0.55,0.67,-0.4,-0.3
11.5235,0.34,-0.48,2.76,0.54,0.67,-0.41,-0.31
11.5437,2.61,-0.2,1.8,0.53,0.67,-0.42,-0.31
11.6211,2.0,-0.15,1.43,0.52,0.67,-0.43,-0.32
11.6339,2.75,-0.63,3.35,0.49,0.66,-0.46,-0.34
11.6532,-0.48,-0.02,3.48,0.49,0.65,-0.47,-0.34
11.7101,-1.69,-0.68,4.34,0.48,0.65,-0.48,-0.34
11.7339,1.34,-0.01,2.4,0.47,0.65,-0.48,-0.35
11.8111,0.93,-1.0,2.18,0.47,0.65,-0.48,-0.36
11.8229,1.34,-0.73,2.04,0.48,0.65,-0.47,-0.36
11.8431,3.48,-0.3,1.99,0.48,0.65,-0.47,-0.36
11.9041,5.33,-0.89,2.61,0.49,0.65,-0.46,-0.35
11.923,4.41,-1.29,4.11,0.52,0.64,-0.43,-0.36
11.9429,4.9,-1.09,4.39,0.54,0.64,-0.41,-0.36
11.9941,4.42,-0.67,3.02,0.55,0.64,-0.39,-0.36
12.0029,1.23,-2.27,2.15,0.6,0.62,-0.35,-0.37
12.0241,0.88,-2.31,1.82,0.62,0.61,-0.32,-0.38
12.1011,0.64,-1.86,1.43,0.64,0.6,-0.29,-0.38
12.113,-2.91,-0.07,-0.38,0.71,0.56,-0.18,-0.38
12.1332,-3.32,-0.83,0.34,0.73,0.54,-0.16,-0.38
12.1881,-1.06,-2.84,-0.05,0.75,0.52,-0.13,-0.38
12.203,-5.05,-0.1,-0.89,0.79,0.49,-0.08,-0.37
12.228,-7.17,-0.69,-0.86,0.8,0.48,-0.07,-0.36
12.2951,-4.52,-2.8,-1.79,0.81,0.47,-0.06,-0.34
12.313,-4.7,-2.09,-3.85,0.82,0.49,-0.06,-0.3
12.3335,-3.89,-1.51,-3.81,0.82,0.5,-0.06,-0.28
12.4074,1.55,-0.95,-5.07,0.81,0.51,-0.07,-0.26
12.4234,-2.88,-1.3,-6.68,0.79,0.56,-0.09,-0.22
12.4433,-0.28,-0.62,-8.11,0.78,0.58,-0.09,-0.21
12.4733,1.11,-0.46,-8.55,0.76,0.61,-0.11,-0.19
12.4954,-0.34,-0.79,-7.7,0.75,0.62,-0.12,-0.19
12.5144,0.28,-1.09,-7.59,0.74,0.63,-0.13,-0.19
12.5335,2.33,-0.48,-7.68,0.73,0.64,-0.14,-0.2
12.5574,1.94,-0.19,-7.16,0.72,0.65,-0.15,-0.2
12.573,2.72,-2.09,-7.28,0.71,0.66,-0.16,-0.2
12.593,4.66,-1.77,-7.37,0.7,0.66,-0.17,-0.2
12.6161,5.43,0.57,-7.52,0.7,0.66,-0.18,-0.2
12.6359,3.51,0.08,-7.63,0.7,0.65,-0.19,-0.2
12.653,2.68,-3.5,-7.09,0.71,0.65,-0.2,-0.21
12.7061,3.15,-3.04,-6.14,0.71,0.64,-0.2,-0.21
12.7229,3.06,0.75,-3.8,0.71,0.63,-0.22,-0.23
12.7431,-0.06,0.06,-2.13,0.71,0.62,-0.24,-0.23
12.7635,-2.17,-4.21,-0.56,0.71,0.62,-0.25,-0.23
12.7893,-0.76,-2.5,-0.01,0.7,0.62,-0.26,-0.24
12.8601,1.01,1.5,0.43,0.69,0.63,-0.27,-0.25
12.8729,2.06,-2.45,1.96,0.65,0.64,-0.32,-0.26
12.8939,2.95,-2.1,1.98,0.63,0.65,-0.33,-0.26
12.9411,0.34,-0.98,2.03,0.61,0.65,-0.35,-0.27
12.9629,3.12,-3.06,3.62,0.57,0.67,-0.39,-0.28
12.988,4.51,-1.22,2.61,0.55,0.67,-0.41,-0.28
13.0039,2.78,-0.76,3.07,0.54,0.67,-0.43,-0.29
13.0601,0.54,-2.11,4.35,0.52,0.67,-0.44,-0.3
13.0832,0.15,-0.94,2.9,0.49,0.67,-0.47,-0.31
13.1421,0.54,-1.15,3.16,0.48,0.67,-0.48,-0.31
13.1539,1.01,-0.38,1.12,0.46,0.67,-0.49,-0.32
13.1741,0.49,0.78,1.67,0.45,0.67,-0.5,-0.33
13.2371,1.89,-0.17,1.43,0.44,0.67,-0.5,-0.33
13.2539,-0.79,2.68,2.69,0.43,0.67,-0.5,-0.34
13.2739,-0.45,0.19,3.09,0.42,0.67,-0.51,-0.34
13.327,1.48,-4.58,3.32,0.42,0.67,-0.51,-0.34
13.3439,1.93,4.16,4.82,0.42,0.68,-0.51,-0.33
13.364,3.77,-0.91,3.74,0.42,0.68,-0.51,-0.33
13.4141,4.18,-2.84,3.15,0.42,0.68,-0.51,-0.33
13.4342,2.53,0.18,3.25,0.43,0.67,-0.5,-0.34
13.4543,4.21,-2.37,2.54,0.44,0.66,-0.5,-0.34
13.4742,4.75,-2.07,3.41,0.45,0.66,-0.49,-0.34
13.4941,5.01,-0.92,3.48,0.46,0.66,-0.48,-0.35
13.555,5.56,-1.08,3.06,0.47,0.66,-0.47,-0.35
13.5739,3.22,-2.1,2.32,0.53,0.65,-0.42,-0.36
13.5939,3.82,-0.59,0.92,0.54,0.64,-0.39,-0.37
13.6139,3.37,-0.85,-0.1,0.57,0.63,-0.37,-0.38
13.6359,1.21,-2.33,0.73,0.59,0.61,-0.35,-0.39
13.686,1.05,-2.81,0.15,0.62,0.59,-0.33,-0.39
13.7092,-1.39,-0.77,-1.5,0.69,0.55,-0.26,-0.4
13.7681,-2.84,-0.48,-0.61,0.72,0.52,-0.23,-0.4
13.7897,-1.47,-0.55,-1.77,0.77,0.48,-0.17,-0.39
13.8043,-3.59,-0.55,-1.39,0.78,0.46,-0.15,-0.39
13.8243,-3.34,-0.27,-1.46,0.79,0.46,-0.13,-0.39
13.8731,-2.97,0.22,-1.81,0.8,0.45,-0.12,-0.38
13.8839,-2.59,-0.99,-2.8,0.81,0.45,-0.11,-0.36
13.9071,-4.37,-2.21,-2.91,0.81,0.46,-0.11,-0.35
13.9682,-4.13,-0.78,-3.18,0.81,0.47,-0.1,-0.34
13.9841,-4.73,-3.07,-4.66,0.8,0.5,-0.11,-0.31
14.004,-4.19,-1.84,-4.78,0.79,0.51,-0.1,-0.31
14.0451,-2.11,0.95,-5.34,0.78,0.53,-0.11,-0.3
14.056,-1.25,-2.81,-5.82,0.77,0.56,-0.12,-0.28
14.074,-1.59,-2.18,-5.71,0.76,0.58,-0.12,-0.27
14.094,-2.41,0.5,-6.75,0.75,0.6,-0.12,-0.27
14.1139,0.27,1.62,-6.96,0.74,0.61,-0.12,-0.26
14.1536,4.74,-2.89,-7.29,0.72,0.63,-0.13,-0.25
14.1739,2.66,0.57,-6.99,0.71,0.65,-0.14,-0.23
14.1939,2.49,2.5,-6.32,0.71,0.66,-0.14,-0.22
14.2151,4.11,-0.46,-6.18,0.7,0.66,-0.16,-0.22
14.2845,4.5,-2.4,-6.68,0.69,0.67,-0.17,-0.22
14.3043,2.46,0.57,-6.95,0.7,0.65,-0.2,-0.22
14.3242,2.23,-1.62,-6.57,0.7,0.64,-0.21,-0.23
14.3443,0.98,-2.6,-5.41,0.7,0.64,-0.22,-0.23
14.3642,1.25,-0.95,-4.49,0.7,0.64,-0.22,-0.23
14.3845,0.57,1.26,-4.14,0.7,0.63,-0.23,-0.24
14.405,-1.15,0.05,-2.45,0.7,0.63,-0.24,-0.24
14.4764,0.54,-2.18,-1.46,0.69,0.63,-0.25,-0.25
14.4942,-0.62,-1.65,1.24,0.67,0.63,-0.3,-0.26
14.5141,0.83,-1.07,0.88,0.65,0.64,-0.31,-0.26
14.5751,0.86,-0.94,0.95,0.64,0.65,-0.33,-0.26
14.5952,3.62,-0.13,1.05,0.58,0.67,-0.37,-0.27
14.6149,2.44,-1.39,2.1,0.56,0.67,-0.39,-0.28
14.6369,3.13,-3.86,2.84,0.55,0.67,-0.41,-0.29
14.6541,2.94,-3.65,3.23,0.53,0.67,-0.42,-0.29
14.7193,2.17,-2.23,4.05,0.52,0.68,-0.43,-0.3
14.7379,-0.01,-0.93,5.04,0.48,0.68,-0.47,-0.31
14.7548,0.21,-1.02,5.25,0.47,0.67,-0.48,-0.31
14.8184,2.65,-0.75,5.18,0.46,0.67,-0.49,-0.31
14.8345,-0.75,-0.64,4.72,0.45,0.67,-0.5,-0.32
14.8552,0.15,-0.57,3.76,0.45,0.67,-0.5,-0.32
14.8742,1.59,-0.32,2.6,0.44,0.68,-0.5,-0.32
14.8954,1.73,0.43,1.29,0.44,0.68,-0.49,-0.32
14.9153,1.25,-0.14,1.35,0.44,0.68,-0.49,-0.32
14.9353,0.99,-0.33,0.7,0.44,0.68,-0.49,-0.32
14.9761,0.79,-1.29,-0.01,0.45,0.67,-0.49,-0.32
14.9949,-0.36,-1.05,0.25,0.45,0.67,-0.49,-0.32
15.0148,-0.1,1.06,0.02,0.45,0.67,-0.49,-0.32
15.0761,0.91,0.37,0.68,0.45,0.67,-0.49,-0.32
15.0949,6.62,-0.35,3.03,0.47,0.68,-0.48,-0.31
15.1149,8.14,0.26,3.35,0.48,0.67,-0.47,-0.31
15.1722,9.76,-0.48,3.06,0.49,0.67,-0.46,-0.31
15.1951,3.03,-1.08,2.63,0.56,0.64,-0.42,-0.33
15.262,2.83,-1.23,2.48,0.58,0.62,-0.4,-0.34
15.2851,-0.97,-3.24,-0.07,0.67,0.57,-0.31,-0.36
15.3521,-2.73,-2.04,-0.09,0.7,0.55,-0.28,-0.36
15.3751,-2.95,-1.93,-0.54,0.78,0.49,-0.2,-0.35
15.4441,-1.58,-2.2,-0.68,0.79,0.48,-0.17,-0.34
15.4549,-6.96,-0.17,-1.63,0.84,0.44,-0.11,-0.32
15.4751,-7.86,0.12,-1.71,0.84,0.43,-0.1,-0.31
15.5462,-4.98,-0.26,-2.24,0.84,0.44,-0.09,-0.3
15.5649,-5.51,1.82,-3.95,0.83,0.47,-0.05,-0.29
15.5849,-3.37,2.01,-4.15,0.82,0.49,-0.05,-0.29
15.6421,0.63,-4.45,-6.07,0.81,0.51,-0.06,-0.27
15.6651,-0.64,0.86,-5.61,0.78,0.57,-0.06,-0.25
15.7301,1.75,-1.78,-6.53,0.77,0.59,-0.06,-0.24
15.7448,2.2,0.44,-6.82,0.74,0.63,-0.1,-0.21
15.7648,3.22,-1.37,-7.04,0.74,0.64,-0.12,-0.2
15.8261,3.6,-2.8,-6.66,0.73,0.65,-0.14,-0.2
15.8449,3.96,-1.25,-6.13,0.7,0.67,-0.16,-0.21
15.8648,4.53,-0.12,-6.12,0.69,0.67,-0.17,-0.21
15.927,3.57,0.88,-5.78,0.69,0.67,-0.18,-0.22
15.9454,3.31,-0.36,-6.01,0.68,0.66,-0.2,-0.24
15.9649,2.3,0.57,-5.18,0.68,0.66,-0.21,-0.24
16.0354,-0.11,-0.11,-3.45,0.68,0.66,-0.22,-0.24
16.0552,-0.13,-4.68,-0.9,0.66,0.66,-0.26,-0.25
16.075,1.48,-1.84,-0.64,0.65,0.66,-0.27,-0.25
16.1082,0.2,-0.32,-0.3,0.65,0.67,-0.28,-0.25
16.1259,-2.19,0.29,-0.17,0.63,0.67,-0.3,-0.25
16.1499,1.22,-1.88,-0.76,0.61,0.67,-0.32,-0.26
16.2001,3.12,-2.02,-0.07,0.59,0.68,-0.34,-0.26
16.2148,1.3,-1.0,2.44,0.55,0.68,-0.39,-0.28
16.2373,2.39,-2.61,2.3,0.53,0.68,-0.42,-0.28
16.2841,5.57,-3.73,2.19,0.51,0.68,-0.44,-0.29
16.2958,0.53,0.24,5.21,0.49,0.68,-0.47,-0.3
16.316,-0.39,-0.95,5.78,0.47,0.67,-0.48,-0.3
16.3393,0.94,-4.34,6.18,0.45,0.68,-0.49,-0.31
16.3555,1.94,-3.74,6.32,0.44,0.68,-0.5,-0.31
16.3758,2.21,-0.05,6.86,0.43,0.68,-0.5,-0.31
16.3951,1.89,1.09,7.5,0.42,0.68,-0.51,-0.31
16.4644,3.34,-2.59,5.71,0.42,0.68,-0.51,-0.31
16.4864,1.77,-1.2,1.63,0.42,0.68,-0.51,-0.32
16.5062,0.96,-0.77,0.13,0.42,0.68,-0.51,-0.32
16.5263,-1.69,0.84,-0.24,0.43,0.67,-0.51,-0.33
16.5612,-0.75,0.52,0.67,0.43,0.67,-0.5,-0.33
16.5759,2.07,-2.04,0.02,0.44,0.67,-0.5,-0.32
16.5959,0.72,0.84,0.12,0.44,0.67,-0.5,-0.32
16.62,0.38,1.52,1.27,0.45,0.67,-0.49,-0.32
16.6359,2.84,0.34,2.9,0.46,0.67,-0.49,-0.32
16.6558,5.02,-0.97,2.59,0.47,0.67,-0.48,-0.32
16.721,6.64,-1.29,3.11,0.48,0.67,-0.47,-0.32
16.7358,6.93,-0.96,3.98,0.53,0.65,-0.43,-0.33
16.7558,5.8,-2.09,3.66,0.55,0.64,-0.41,-0.34
16.8233,4.26,-2.08,3.05,0.57,0.63,-0.39,-0.35
16.848,-1.02,-2.93,1.52,0.66,0.57,-0.31,-0.36
16.9231,-1.23,-3.1,0.58,0.69,0.56,-0.29,-0.36
16.9395,-2.93,-2.52,0.35,0.77,0.5,-0.2,-0.35
16.9558,-2.73,-2.77,0.15,0.78,0.49,-0.17,-0.34
17.0232,-0.58,-1.05,-1.0,0.79,0.49,-0.14,-0.34
17.0463,-3.79,-0.99,-2.51,0.83,0.45,-0.1,-0.31
17.0892,-3.9,-0.62,-2.73,0.84,0.45,-0.09,-0.31
17.1061,-0.79,-2.12,-4.04,0.84,0.45,-0.09,-0.28
17.1261,-2.32,-0.71,-4.82,0.84,0.46,-0.08,-0.28
17.1461,-3.13,0.28,-4.53,0.84,0.46,-0.08,-0.28
17.2073,-3.05,0.63,-4.29,0.83,0.47,-0.08,-0.27
17.2261,-1.8,0.06,-5.18,0.82,0.51,-0.08,-0.25
17.2459,-2.83,1.2,-4.91,0.81,0.52,-0.09,-0.25
17.2662,-1.51,-0.11,-5.29,0.8,0.54,-0.09,-0.25
17.2891,-0.02,-1.79,-5.98,0.79,0.55,-0.1,-0.24
17.3605,-1.42,-1.01,-5.79,0.78,0.57,-0.1,-0.24
17.377,0.83,-1.98,-6.21,0.74,0.61,-0.13,-0.23
17.396,2.7,-0.56,-5.75,0.73,0.63,-0.14,-0.23
17.4323,4.18,-0.64,-6.27,0.71,0.64,-0.15,-0.23
17.4714,4.97,-1.83,-6.37,0.7,0.65,-0.16,-0.23
17.4861,4.07,-0.59,-6.43,0.7,0.66,-0.17,-0.24
17.5059,1.32,-0.63,-6.21,0.69,0.65,-0.18,-0.24
17.5782,0.77,-0.75,-5.85,0.69,0.65,-0.19,-0.24
17.596,-0.09,0.13,-2.61,0.68,0.64,-0.23,-0.25
17.6188,-0.82,0.32,-1.44,0.68,0.65,-0.24,-0.25
17.6532,-0.37,-0.61,-0.52,0.67,0.65,-0.26,-0.26
17.6658,1.44,-2.29,-0.34,0.65,0.66,-0.27,-0.26
17.6857,2.07,-1.95,0.37,0.64,0.67,-0.28,-0.26
17.706,2.44,-1.55,1.23,0.62,0.68,-0.29,-0.26
17.7811,2.21,-0.39,0.61,0.61,0.68,-0.31,-0.26
17.7967,4.02,0.45,2.68,0.56,0.7,-0.36,-0.27
17.8168,4.81,-3.59,3.71,0.54,0.69,-0.39,-0.27
17.8831,4.25,-4.95,4.2,0.54,0.69,-0.4,-0.27
17.9071,3.79,-1.71,1.13,0.5,0.7,-0.43,-0.28
17.9741,3.74,-1.04,0.68,0.49,0.7,-0.43,-0.28
17.9868,-1.49,-0.94,5.52,0.47,0.7,-0.45,-0.28
18.0097,2.45,-2.74,7.41,0.46,0.71,-0.45,-0.28
18.074,3.16,-1.82,8.45,0.46,0.71,-0.45,-0.29
18.0871,0.08,-0.5,4.06,0.46,0.71,-0.45,-0.29
18.1057,0.47,1.46,3.17,0.47,0.71,-0.45,-0.29
18.1544,1.63,0.7,1.13,0.47,0.71,-0.44,-0.29
18.1671,2.0,-0.94,-1.07,0.48,0.7,-0.44,-0.29
18.187,1.0,0.38,-1.62,0.48,0.7,-0.43,-0.29
18.2404,0.83,0.92,-0.55,0.49,0.7,-0.43,-0.29
18.2567,3.82,-2.27,2.74,0.5,0.7,-0.42,-0.29
18.277,7.75,-1.73,4.05,0.51,0.69,-0.42,-0.29
18.3221,8.36,-1.27,4.6,0.52,0.69,-0.4,-0.3
18.3388,4.95,-0.78,3.81,0.56,0.67,-0.37,-0.3
18.3568,4.32,-1.14,2.98,0.59,0.66,-0.35,-0.31
18.4244,4.24,-1.6,1.86,0.62,0.64,-0.33,-0.31
18.4471,-0.31,-1.7,-0.8,0.72,0.57,-0.24,-0.32
18.5161,-1.05,-0.7,-1.48,0.74,0.55,-0.21,-0.32
18.5271,-2.46,-0.16,-2.34,0.8,0.5,-0.13,-0.32
18.5474,-2.41,-0.75,-1.64,0.81,0.49,-0.11,-0.32
18.5718,-2.59,-0.3,-2.01,0.82,0.47,-0.09,-0.31
18.5872,-3.74,0.53,-2.49,0.83,0.46,-0.07,-0.31
18.6342,-5.34,-0.71,-1.92,0.84,0.45,-0.07,-0.3
18.657,-2.41,-1.39,-2.91,0.84,0.46,-0.04,-0.29
18.7301,-1.46,0.02,-3.6,0.84,0.46,-0.04,-0.29
18.7488,-1.36,-1.34,-4.74,0.83,0.49,-0.05,-0.27
18.7668,-1.22,-0.34,-4.76,0.82,0.5,-0.05,-0.27
18.8411,-2.11,0.65,-3.96,0.81,0.51,-0.06,-0.27
18.8567,0.21,1.29,-4.48,0.78,0.56,-0.1,-0.26
18.8793,1.14,-1.12,-4.48,0.77,0.57,-0.11,-0.26
18.9545,1.48,-1.62,-4.36,0.76,0.59,-0.13,-0.25
18.9802,1.18,0.21,-3.18,0.72,0.63,-0.17,-0.24
19.0312,2.31,-0.91,-3.37,0.7,0.64,-0.18,-0.24
19.0468,4.02,-0.41,-4.48,0.68,0.67,-0.19,-0.23
19.0667,3.56,1.34,-4.87,0.68,0.67,-0.19,-0.23
19.1282,3.48,1.18,-4.98,0.68,0.67,-0.2,-0.23
19.1468,2.75,-0.43,-6.48,0.69,0.65,-0.21,-0.25
19.1668,1.65,-0.37,-6.73,0.69,0.64,-0.22,-0.26
19.2375,-1.48,0.14,-5.23,0.7,0.63,-0.22,-0.26
19.2568,-5.01,1.5,-2.89,0.71,0.61,-0.24,-0.27
19.2777,-6.12,1.42,-1.82,0.7,0.61,-0.25,-0.27
19.3462,-4.32,-0.34,-0.59,0.7,0.61,-0.26,-0.27
19.3567,1.73,-1.09,0.2,0.66,0.63,-0.3,-0.27
19.3772,1.66,-1.06,0.42,0.65,0.64,-0.31,-0.27
19.4261,3.25,-1.43,0.11,0.63,0.65,-0.33,-0.28
19.4474,3.78,-4.64,1.93,0.59,0.65,-0.37,-0.29
19.4667,3.09,-5.08,1.27,0.58,0.65,-0.39,-0.3
19.4867,1.16,-3.88,2.28,0.56,0.66,-0.4,-0.3
19.5491,1.38,-2.61,3.52,0.55,0.66,-0.41,-0.3
19.5667,0.21,-1.47,6.02,0.51,0.67,-0.44,-0.31
19.5866,-1.83,1.74,7.74,0.5,0.67,-0.45,-0.31
19.6571,-0.89,3.42,9.25,0.5,0.67,-0.46,-0.3
19.6777,2.85,1.46,5.4,0.49,0.68,-0.46,-0.3
19.6977,3.85,1.39,3.46,0.49,0.68,-0.45,-0.3
19.765,3.99,1.16,0.8,0.49,0.68,-0.45,-0.31
19.7884,-1.3,-3.51,-1.37,0.49,0.67,-0.45,-0.33
19.8154,-1.7,-2.34,-1.19,0.49,0.67,-0.45,-0.33
19.8383,-0.8,0.26,0.43,0.49,0.67,-0.45,-0.33
19.8711,-1.08,-0.62,1.59,0.5,0.66,-0.45,-0.33
19.8878,0.1,-1.84,5.43,0.5,0.67,-0.45,-0.33
19.9077,5.96,-2.07,6.66,0.5,0.67,-0.44,-0.32
19.9771,10.08,-0.8,6.38,0.51,0.67,-0.44,-0.32
19.9977,7.28,-4.41,2.77,0.58,0.63,-0.4,-0.33
20.0197,3.37,-0.78,0.61,0.61,0.62,-0.37,-0.34
20.0922,2.48,-0.16,0.1,0.63,0.6,-0.35,-0.34
20.1077,-3.14,-0.73,-3.14,0.73,0.54,-0.26,-0.34
20.1278,-3.28,-0.85,-2.6,0.75,0.52,-0.23,-0.33
20.2011,-2.64,-2.03,-3.03,0.77,0.51,-0.2,-0.32
20.218,-3.07,0.43,-0.46,0.82,0.46,-0.11,-0.3
20.2377,0.33,-2.12,-0.24,0.83,0.46,-0.1,-0.3
20.3051,0.91,-2.82,-0.86,0.84,0.45,-0.08,-0.29
20.3279,-1.94,0.77,-1.48,0.86,0.43,-0.04,-0.27
20.4071,-0.66,-1.38,-2.04,0.86,0.44,-0.04,-0.26
20.4329,0.28,-0.73,-3.81,0.85,0.47,-0.03,-0.24
20.5121,0.03,-0.48,-4.41,0.85,0.48,-0.03,-0.23
20.5277,-0.45,-0.41,-4.45,0.83,0.52,0.01,-0.2
20.5477,-1.89,0.69,-4.35,0.83,0.52,0.01,-0.19
20.6191,-1.96,1.54,-4.07,0.82,0.54,0.01,-0.18
20.6387,1.98,-0.02,-3.94,0.78,0.59,-0.01,-0.2
20.6577,1.46,1.52,-2.91,0.77,0.61,-0.03,-0.2
20.709,1.22,-0.55,-2.98,0.76,0.62,-0.05,-0.21
20.7282,3.5,-1.45,-4.4,0.72,0.65,-0.1,-0.24
20.7508,6.06,-0.66,-4.73,0.7,0.66,-0.11,-0.25
20.8091,4.65,-0.14,-4.16,0.7,0.66,-0.13,-0.26
20.8287,3.39,-1.56,-4.63,0.68,0.66,-0.19,-0.27
20.848,2.84,-0.96,-4.77,0.68,0.65,-0.2,-0.27
20.9031,0.92,-0.32,-4.49,0.68,0.64,-0.21,-0.28
20.9177,-0.37,-2.29,-3.87,0.68,0.64,-0.25,-0.28
20.9377,-0.04,-0.16,-3.87,0.67,0.63,-0.25,-0.28
21.0091,0.7,1.11,-3.81,0.67,0.63,-0.26,-0.28
21.0287,1.11,-1.47,-2.64,0.65,0.64,-0.29,-0.29
21.0517,2.75,-0.71,-1.77,0.64,0.64,-0.3,-0.3
21.1201,2.42,-1.7,-0.5,0.63,0.65,-0.31,-0.3
21.1387,3.97,-2.0,-0.7,0.57,0.67,-0.36,-0.3
21.1616,4.19,-2.75,1.0,0.55,0.68,-0.38,-0.31
21.235,2.05,-2.7,1.41,0.54,0.68,-0.39,-0.31
21.2486,6.77,-2.52,7.64,0.47,0.69,-0.46,-0.3
21.2686,2.49,-0.94,8.44,0.46,0.69,-0.47,-0.3
21.3381,-1.11,0.24,9.59,0.45,0.69,-0.48,-0.3
21.3586,2.67,-0.36,4.9,0.43,0.7,-0.49,-0.3
21.3787,-0.21,-3.16,4.54,0.43,0.69,-0.49,-0.31
21.4481,0.64,-6.04,2.63,0.43,0.69,-0.48,-0.31
21.4686,1.95,-1.44,1.37,0.45,0.69,-0.48,-0.3
21.488,3.55,-1.06,1.95,0.46,0.69,-0.48,-0.3
21.558,4.47,0.34,3.19,0.47,0.69,-0.47,-0.29
21.5808,6.89,-0.45,2.44,0.54,0.66,-0.43,-0.29
21.6581,5.17,-0.62,1.78,0.57,0.65,-0.41,-0.3
21.6787,1.16,-1.7,-0.83,0.68,0.59,-0.31,-0.3
21.6987,-0.88,-2.53,-1.05,0.71,0.57,-0.28,-0.3
21.7722,-2.02,-2.06,-1.03,0.74,0.55,-0.24,-0.3
21.7807,-2.86,-1.11,-0.43,0.79,0.52,-0.17,-0.29
21.7993,-0.78,-1.56,-0.29,0.8,0.51,-0.15,-0.29
21.8481,0.05,-1.38,-0.95,0.81,0.5,-0.13,-0.29
21.8617,-3.28,-2.05,-0.84,0.83,0.48,-0.1,-0.28
21.8789,-2.9,-0.75,-1.8,0.83,0.47,-0.09,-0.28
21.9601,-1.14,-0.86,-2.07,0.83,0.46,-0.08,-0.29
21.9817,-1.91,-1.5,-2.56,0.86,0.43,-0.04,-0.29
21.9992,-1.71,-0.44,-2.97,0.86,0.42,-0.03,-0.28
22.0188,-1.07,-0.48,-3.41,0.86,0.42,-0.02,-0.27
22.0387,-1.22,0.64,-3.27,0.86,0.43,-0.02,-0.26
22.0587,-1.63,1.12,-3.5,0.87,0.43,-0.02,-0.25
22.0788,-0.11,-1.0,-4.5,0.86,0.44,-0.03,-0.24
22.0987,-0.26,0.02,-5.21,0.86,0.45,-0.03,-0.24
22.1701,-1.27,4.05,-3.62,0.85,0.46,-0.04,-0.23
22.1886,3.55,1.47,-4.21,0.81,0.54,-0.07,-0.23
22.2087,3.34,1.31,-3.79,0.79,0.56,-0.07,-0.23
22.2781,1.91,-1.93,-3.49,0.78,0.57,-0.08,-0.23
22.2887,4.51,-0.52,-4.83,0.74,0.62,-0.11,-0.22
22.3098,6.9,-0.61,-6.01,0.74,0.63,-0.11,-0.22
22.3893,5.46,1.18,-5.75,0.73,0.63,-0.12,-0.22
22.4086,5.02,1.43,-10.07,0.72,0.63,-0.15,-0.24
22.4287,1.75,3.17,-9.2,0.73,0.62,-0.16,-0.25
22.4981,-2.64,-1.07,-5.87,0.73,0.61,-0.17,-0.26
22.5187,-2.41,1.29,-2.11,0.71,0.62,-0.21,-0.26
22.5397,-1.6,-1.47,-0.43,0.7,0.62,-0.22,-0.27
22.6121,-1.36,-0.8,1.16,0.69,0.63,-0.23,-0.27
22.6287,2.75,-3.96,1.13,0.63,0.66,-0.3,-0.27
22.6486,2.91,-4.73,2.22,0.61,0.67,-0.32,-0.27
22.7181,3.51,-2.86,2.59,0.59,0.68,-0.34,-0.27
22.7296,3.67,-2.13,1.87,0.55,0.68,-0.39,-0.28
22.7489,1.39,-0.79,3.21,0.53,0.69,-0.41,-0.28
22.826,1.72,0.23,4.28,0.51,0.69,-0.42,-0.28
22.8499,6.08,-2.64,8.42,0.47,0.7,-0.45,-0.3
22.9274,2.46,-0.93,7.82,0.47,0.69,-0.45,-0.31
22.95,-1.01,-3.96,2.34,0.47,0.68,-0.46,-0.35
23.0296,-0.9,-1.39,1.79,0.47,0.67,-0.46,-0.34
23.05,3.57,-0.73,2.19,0.5,0.67,-0.44,-0.33
23.0698,6.14,0.76,1.31,0.52,0.66,-0.44,-0.32
23.0898,6.2,-0.42,0.05,0.53,0.66,-0.43,-0.32
23.1251,5.66,-1.45,-0.13,0.55,0.65,-0.43,-0.31
23.1397,4.71,-0.45,-1.7,0.57,0.64,-0.41,-0.31
23.1586,3.95,0.2,-1.29,0.59,0.64,-0.39,-0.31
23.2311,2.79,-0.72,0.55,0.61,0.63,-0.38,-0.3
23.2496,-0.21,1.51,2.52,0.68,0.6,-0.31,-0.29
23.2696,0.32,1.94,2.39,0.71,0.58,-0.28,-0.29
23.337,-0.58,0.68,2.69,0.73,0.56,-0.26,-0.29
23.3604,-2.33,0.66,0.14,0.8,0.5,-0.17,-0.28
23.3895,-2.05,-0.1,1.19,0.82,0.49,-0.15,-0.28
23.4099,1.36,-2.21,0.07,0.84,0.47,-0.11,-0.27
23.43,-0.08,-0.81,-1.58,0.85,0.45,-0.08,-0.26
23.45,-4.39,-1.95,0.14,0.86,0.44,-0.06,-0.26
23.5031,-0.81,-1.08,0.21,0.86,0.44,-0.04,-0.26
23.5196,-0.45,0.13,-3.52,0.86,0.45,-0.02,-0.26
23.54,-2.82,0.14,-2.79,0.86,0.44,-0.02,-0.26
23.5732,-3.33,-2.31,-3.49,0.86,0.45,-0.02,-0.26
23.5898,-2.37,-2.98,-4.23,0.85,0.46,-0.02,-0.25
23.6102,-2.93,-1.06,-4.55,0.85,0.47,-0.02,-0.25
23.6831,-2.07,0.81,-4.56,0.84,0.48,-0.01,-0.25
23.7,-3.81,0.92,-5.41,0.83,0.5,-0.04,-0.23
23.7209,-2.81,0.71,-5.76,0.83,0.51,-0.06,-0.24
23.7397,-0.79,-2.48,-7.49,0.81,0.53,-0.07,-0.24
23.7601,1.27,-1.94,-6.5,0.8,0.55,-0.08,-0.25
23.7974,2.37,0.34,-5.87,0.78,0.56,-0.09,-0.25
23.8202,1.03,-2.34,-5.73,0.76,0.59,-0.13,-0.25
23.8751,0.49,-0.91,-5.45,0.74,0.6,-0.15,-0.25
23.8927,3.94,-0.25,-6.16,0.71,0.62,-0.19,-0.25
23.9096,4.7,-0.11,-5.97,0.71,0.63,-0.21,-0.25
23.9811,3.45,-0.95,-5.52,0.7,0.62,-0.23,-0.25
23.9996,4.62,-2.0,-5.56,0.69,0.62,-0.26,-0.26
24.0207,1.91,0.79,-4.54,0.69,0.62,-0.26,-0.27
24.0912,1.06,-0.03,-3.29,0.69,0.62,-0.27,-0.27
24.1097,0.66,-0.55,-0.74,0.67,0.63,-0.28,-0.28
24.1297,1.18,-2.12,0.48,0.66,0.63,-0.29,-0.29
24.1991,1.33,-1.76,0.2,0.65,0.64,-0.3,-0.28
24.2206,4.93,-4.11,0.75,0.6,0.66,-0.34,-0.28
24.2396,3.36,-3.5,0.14,0.59,0.67,-0.36,-0.28
24.2606,1.91,-1.06,1.25,0.58,0.67,-0.37,-0.28
24.3321,2.02,-1.46,3.59,0.56,0.68,-0.39,-0.28
24.3537,-1.28,-0.06,14.2,0.51,0.69,-0.43,-0.28
24.3713,3.06,-1.32,12.37,0.5,0.7,-0.44,-0.27
24.3909,5.51,3.31,9.26,0.49,0.7,-0.44,-0.27
24.4106,3.05,3.61,8.47,0.49,0.7,-0.44,-0.28
24.4309,1.11,0.52,6.69,0.49,0.69,-0.44,-0.29
24.4881,2.15,-2.45,3.23,0.49,0.69,-0.44,-0.3
24.5113,-0.32,-3.25,-1.0,0.5,0.68,-0.43,-0.31
24.5584,-0.02,-2.25,-2.03,0.51,0.68,-0.43,-0.31
24.5814,1.28,0.19,2.37,0.52,0.68,-0.42,-0.3
24.6063,3.62,-0.3,3.08,0.52,0.68,-0.42,-0.29
24.621,4.67,-0.39,4.16,0.53,0.68,-0.41,-0.29
24.6406,5.64,-0.55,4.54,0.54,0.68,-0.4,-0.29
24.7101,4.95,-0.13,4.99,0.55,0.67,-0.39,-0.29
24.7205,3.13,-2.87,3.64,0.61,0.64,-0.36,-0.3
24.7407,2.51,-1.24,2.71,0.63,0.63,-0.34,-0.3
24.818,2.09,-0.32,2.05,0.65,0.62,-0.32,-0.3
24.831,-2.08,-0.57,0.52,0.74,0.56,-0.26,-0.29
24.8506,-0.36,-1.78,0.24,0.75,0.54,-0.24,-0.29
24.9222,1.53,-2.2,-0.71,0.76,0.53,-0.22,-0.29
24.9406,-3.21,0.39,-0.67,0.81,0.48,-0.15,-0.29
24.9629,0.53,-1.63,-2.42,0.82,0.48,-0.14,-0.29
25.0233,0.54,-1.25,-2.73,0.82,0.47,-0.13,-0.29
25.0406,-4.32,-2.42,-2.35,0.84,0.45,-0.11,-0.29
25.0606,-2.48,-1.28,-3.24,0.84,0.45,-0.1,-0.29
25.1341,-1.73,0.68,-4.1,0.84,0.46,-0.09,-0.28
25.1536,-2.05,1.55,-5.09,0.82,0.5,-0.1,-0.27
25.1706,-1.18,2.62,-5.39,0.81,0.51,-0.1,-0.27
25.209,1.46,0.22,-7.0,0.8,0.52,-0.12,-0.28
25.2313,-0.74,-2.34,-5.7,0.78,0.54,-0.14,-0.28
25.2615,-0.81,-0.61,-5.19,0.77,0.55,-0.15,-0.27
25.2809,2.66,-1.9,-6.62,0.75,0.58,-0.18,-0.27
25.3029,2.12,-0.46,-6.2,0.74,0.59,-0.19,-0.26
25.3434,1.75,0.29,-5.89,0.73,0.6,-0.21,-0.26
25.3611,2.56,0.07,-6.27,0.71,0.61,-0.23,-0.26
25.3806,5.4,0.42,-6.84,0.7,0.62,-0.23,-0.26
25.434,4.67,0.09,-6.9,0.7,0.61,-0.24,-0.27
25.4506,0.38,-1.31,-4.44,0.7,0.61,-0.27,-0.28
25.4706,1.21,-0.34,-4.06,0.69,0.61,-0.28,-0.28
25.542,1.2,0.51,-2.95,0.68,0.61,-0.28,-0.29
25.5612,1.29,-0.86,-1.12,0.66,0.62,-0.31,-0.3
25.5822,2.39,-0.34,-0.49,0.65,0.62,-0.32,-0.3
25.6382,0.4,-0.55,1.03,0.64,0.62,-0.33,-0.3
25.6505,1.22,-2.92,2.52,0.6,0.64,-0.37,-0.3
25.6706,2.07,-1.69,3.27,0.59,0.64,-0.39,-0.3
25.7411,3.16,-1.79,4.79,0.57,0.65,-0.4,-0.3
25.7505,3.3,-2.66,5.47,0.54,0.65,-0.44,-0.3
25.7708,3.23,-2.1,5.19,0.53,0.65,-0.45,-0.3
25.8481,2.98,-1.13,4.78,0.53,0.65,-0.45,-0.3
25.8713,-2.04,-0.16,4.82,0.52,0.64,-0.47,-0.31
25.9061,-2.15,-1.94,4.62,0.52,0.64,-0.47,-0.32
25.9216,-0.16,-1.33,4.37,0.52,0.65,-0.45,-0.32
25.9415,1.5,0.21,3.44,0.53,0.65,-0.44,-0.32
26.0101,2.52,0.79,2.78,0.53,0.65,-0.43,-0.32
26.0215,0.71,-1.7,0.71,0.55,0.64,-0.42,-0.33
26.0446,-0.28,-2.17,0.64,0.55,0.64,-0.42,-0.33
26.1142,-0.93,-1.4,0.43,0.56,0.64,-0.41,-0.33
26.1317,-0.39,-0.41,-0.03,0.58,0.64,-0.39,-0.32
26.1516,-0.6,-0.32,0.14,0.59,0.64,-0.38,-0.32
26.2232,-0.27,0.05,-0.25,0.59,0.64,-0.38,-0.32
26.2418,0.84,-0.66,-0.6,0.61,0.64,-0.35,-0.31
26.2654,0.19,0.12,-0.36,0.61,0.64,-0.35,-0.31
26.3224,-0.78,-0.06,-0.36,0.62,0.64,-0.34,-0.3
26.3419,-0.41,-0.18,-0.49,0.63,0.64,-0.32,-0.29
26.362,-0.5,-0.39,-0.61,0.63,0.64,-0.32,-0.29
26.3962,-0.45,-0.55,-0.67,0.64,0.64,-0.31,-0.29
26.4117,0.46,0.04,-0.71,0.64,0.65,-0.3,-0.28
26.4316,0.69,0.44,-0.62,0.64,0.65,-0.3,-0.28
26.5012,0.16,0.31,-0.65,0.65,0.65,-0.29,-0.28
26.5216,0.19,0.36,-0.62,0.65,0.65,-0.28,-0.27
26.5416,-0.39,0.17,-0.68,0.66,0.64,-0.28,-0.27
26.6132,-0.84,0.1,-0.59,0.66,0.64,-0.28,-0.27
26.6317,-0.04,-0.41,-0.44,0.66,0.64,-0.27,-0.27
26.6516,0.15,-0.21,-0.11,0.66,0.64,-0.27,-0.27
