time_seconds,acc_x,acc_y,acc_z,q_w,q_x,q_y,q_z
0.02,-0.71,-0.95,-0.89,0.75,0.65,-0.08,-0.08
0.0399,1.76,-0.3,0.13,0.75,0.65,-0.08,-0.08
0.0588,3.92,1.04,1.46,0.74,0.66,-0.1,-0.08
0.08,2.76,-0.71,2.21,0.73,0.66,-0.12,-0.09
0.1128,2.25,-1.52,2.7,0.73,0.67,-0.14,-0.09
0.1299,1.51,-0.45,2.39,0.71,0.68,-0.16,-0.1
0.1499,0.89,-0.84,2.54,0.7,0.68,-0.17,-0.11
0.1799,1.2,-0.59,3.02,0.69,0.69,-0.19,-0.13
0.2001,1.81,-0.45,3.24,0.68,0.69,-0.2,-0.13
0.2236,1.62,-1.43,3.21,0.67,0.69,-0.21,-0.15
0.3009,0.63,-1.91,3.0,0.66,0.7,-0.22,-0.16
0.3198,0.56,-4.0,4.27,0.63,0.7,-0.27,-0.2
0.3429,0.04,-1.45,3.55,0.62,0.71,-0.27,-0.21
0.3699,0.32,0.37,4.05,0.61,0.7,-0.29,-0.22
0.39,0.61,-1.56,3.91,0.6,0.7,-0.3,-0.23
0.4228,1.56,-1.15,3.47,0.6,0.7,-0.3,-0.23
0.4398,0.55,-0.15,3.55,0.6,0.7,-0.31,-0.25
0.4599,-0.19,-0.6,3.02,0.6,0.69,-0.31,-0.25
0.49,-0.18,-0.99,2.39,0.6,0.69,-0.31,-0.26
0.51,-0.06,-1.02,2.21,0.6,0.69,-0.32,-0.26
0.53,0.34,-0.79,2.04,0.6,0.69,-0.32,-0.26
0.5647,1.36,-0.59,2.26,0.6,0.69,-0.32,-0.26
0.5798,5.05,-0.87,3.61,0.61,0.68,-0.31,-0.27
0.6028,6.25,-0.96,3.7,0.61,0.67,-0.31,-0.27
0.6199,5.98,-1.06,3.89,0.62,0.67,-0.3,-0.28
0.6399,5.87,-1.58,4.36,0.64,0.66,-0.29,-0.28
0.6598,5.73,-2.91,4.51,0.65,0.65,-0.28,-0.28
0.6798,4.95,-1.21,3.43,0.67,0.64,-0.26,-0.28
0.7019,3.84,-0.39,2.23,0.68,0.63,-0.25,-0.28
0.7198,1.61,-0.16,1.43,0.7,0.61,-0.24,-0.28
0.7457,0.37,-1.0,1.79,0.72,0.59,-0.23,-0.28
0.7599,-1.18,-2.18,0.55,0.74,0.58,-0.21,-0.27
0.7839,-1.37,-2.16,0.05,0.76,0.56,-0.2,-0.27
0.8,-2.12,-2.07,-0.18,0.77,0.55,-0.18,-0.26
0.8331,-2.8,-2.14,0.22,0.79,0.53,-0.17,-0.25
0.8509,-2.02,-1.25,-1.39,0.82,0.51,-0.14,-0.24
0.8709,-2.54,-1.33,-1.88,0.83,0.49,-0.12,-0.23
0.8948,-4.03,-0.15,-1.83,0.84,0.48,-0.11,-0.22
0.9099,-5.21,-0.56,-1.27,0.86,0.46,-0.1,-0.21
0.9299,-4.18,-0.78,-0.52,0.87,0.45,-0.08,-0.2
0.9499,-2.68,0.06,-0.89,0.88,0.44,-0.07,-0.19
0.9701,-3.95,-0.33,-1.24,0.89,0.43,-0.05,-0.18
1.0099,-5.68,0.18,-1.12,0.89,0.42,-0.04,-0.16
1.0299,-4.63,-0.2,-1.95,0.89,0.43,-0.02,-0.15
1.0502,-5.07,-0.07,-3.23,0.89,0.44,-0.01,-0.14
1.07,-4.34,0.03,-2.96,0.89,0.44,-0.01,-0.14
1.0911,-2.6,0.3,-3.03,0.89,0.44,-0.01,-0.14
1.1329,-0.21,-1.87,-3.01,0.88,0.45,-0.01,-0.13
1.151,-0.63,-1.8,-5.91,0.87,0.48,0.0,-0.13
1.1709,0.14,-0.88,-4.62,0.86,0.49,0.0,-0.12
1.1909,2.5,0.41,-4.71,0.86,0.51,-0.01,-0.11
1.21,3.78,-2.08,-5.74,0.85,0.52,-0.02,-0.1
1.2368,2.86,-2.32,-5.58,0.84,0.54,-0.01,-0.09
1.2611,-0.02,-0.47,-5.37,0.82,0.56,-0.01,-0.09
1.2863,0.65,-0.1,-7.61,0.82,0.57,-0.01,-0.09
1.3009,1.35,-1.01,-7.2,0.81,0.58,-0.02,-0.08
1.321,2.8,-0.47,-7.4,0.8,0.59,-0.02,-0.07
1.3459,3.18,-0.77,-6.68,0.79,0.61,-0.03,-0.06
1.3599,2.66,-1.37,-6.73,0.78,0.62,-0.03,-0.06
1.3809,2.52,-0.64,-7.34,0.78,0.62,-0.03,-0.06
1.4027,2.29,0.08,-7.53,0.77,0.63,-0.04,-0.05
1.4209,2.32,-0.23,-6.66,0.77,0.64,-0.04,-0.05
1.4408,2.62,0.17,-6.74,0.76,0.65,-0.04,-0.05
1.4641,2.64,-0.78,-5.91,0.75,0.65,-0.05,-0.05
1.4809,3.16,-0.55,-5.72,0.75,0.66,-0.05,-0.06
1.5008,3.06,0.82,-5.06,0.74,0.66,-0.06,-0.06
1.5258,2.93,0.67,-4.0,0.74,0.67,-0.07,-0.06
1.5404,2.7,-0.38,-2.9,0.73,0.67,-0.09,-0.06
1.5611,2.16,-2.49,-1.93,0.73,0.67,-0.1,-0.06
1.584,1.68,-1.0,-1.71,0.72,0.68,-0.11,-0.07
1.601,0.95,0.83,-1.45,0.71,0.69,-0.12,-0.07
1.621,1.26,0.13,-1.05,0.71,0.69,-0.13,-0.08
1.6411,2.96,-1.55,-0.04,0.7,0.69,-0.15,-0.08
1.6614,2.82,-1.84,0.45,0.69,0.69,-0.17,-0.09
1.7394,2.22,-1.94,1.18,0.69,0.69,-0.19,-0.1
1.751,2.35,-2.17,3.54,0.66,0.7,-0.23,-0.13
1.7709,1.88,-1.54,3.38,0.65,0.7,-0.24,-0.14
1.8008,0.89,-1.63,3.31,0.65,0.7,-0.26,-0.16
1.8209,2.02,-4.38,6.07,0.64,0.7,-0.27,-0.19
1.8409,0.66,-4.47,5.56,0.63,0.69,-0.28,-0.2
1.8609,-0.23,-1.85,5.02,0.63,0.69,-0.28,-0.21
1.8809,-0.18,-0.91,5.8,0.63,0.69,-0.29,-0.23
1.901,-0.46,-1.93,5.33,0.62,0.68,-0.3,-0.24
1.9377,-0.66,-1.55,5.54,0.62,0.68,-0.31,-0.25
1.9609,-0.74,0.0,4.16,0.61,0.67,-0.33,-0.26
2.0,0.63,-0.41,3.12,0.61,0.67,-0.33,-0.27
2.0208,-1.3,-1.26,3.42,0.6,0.67,-0.34,-0.28
2.0411,0.43,0.3,1.91,0.6,0.67,-0.34,-0.29
2.0609,-0.15,1.49,1.59,0.6,0.67,-0.34,-0.29
2.1287,-0.0,-1.37,1.65,0.6,0.66,-0.35,-0.3
2.1413,-0.41,0.89,1.2,0.6,0.66,-0.34,-0.3
2.1611,-0.46,1.18,1.44,0.6,0.66,-0.34,-0.3
2.225,0.5,-0.07,1.95,0.6,0.66,-0.34,-0.3
2.2408,5.8,-1.5,4.05,0.61,0.66,-0.32,-0.29
2.2608,5.6,0.3,4.41,0.61,0.67,-0.31,-0.29
2.2907,6.08,-0.31,4.41,0.62,0.66,-0.3,-0.29
2.3113,4.59,-4.18,4.15,0.64,0.66,-0.28,-0.29
2.3318,3.12,-1.98,3.3,0.65,0.65,-0.27,-0.29
2.3508,3.61,-0.37,2.62,0.66,0.64,-0.25,-0.29
2.3818,3.21,-2.38,2.27,0.68,0.63,-0.24,-0.29
2.4008,-0.88,-4.02,0.95,0.71,0.6,-0.22,-0.29
2.4243,-1.1,-0.68,0.29,0.73,0.59,-0.2,-0.28
2.493,-1.19,0.62,-0.42,0.75,0.58,-0.18,-0.28
2.5108,-1.99,-1.23,-0.23,0.81,0.52,-0.12,-0.25
2.5319,-1.51,-0.88,-1.23,0.82,0.5,-0.1,-0.24
2.5538,-2.68,-1.07,-0.44,0.84,0.49,-0.08,-0.23
2.5709,-3.32,-0.99,-0.43,0.85,0.47,-0.07,-0.22
2.5911,-3.75,-1.54,-0.55,0.86,0.46,-0.06,-0.2
2.6117,-2.44,-0.86,-0.91,0.87,0.44,-0.05,-0.19
2.6929,-1.82,-0.74,-1.99,0.88,0.43,-0.04,-0.17
2.7119,-1.8,0.17,-4.53,0.9,0.41,-0.0,-0.12
2.7308,-1.8,0.38,-4.89,0.9,0.42,0.0,-0.12
2.7519,-1.79,0.08,-5.08,0.9,0.42,0.01,-0.11
2.7708,-0.66,-1.73,-5.11,0.9,0.43,0.01,-0.1
2.7921,-1.31,-0.28,-6.26,0.89,0.44,0.01,-0.1
2.8119,-1.14,1.05,-6.59,0.88,0.46,0.01,-0.1
2.8337,0.63,0.99,-6.61,0.88,0.47,0.01,-0.1
2.8679,1.37,-1.6,-5.72,0.87,0.48,-0.0,-0.09
2.8818,0.98,-0.46,-5.51,0.86,0.5,-0.0,-0.09
2.9018,1.96,1.02,-4.94,0.85,0.52,-0.01,-0.09
2.9741,2.11,-0.82,-5.32,0.85,0.52,-0.01,-0.09
2.9919,3.98,-1.98,-4.75,0.82,0.57,-0.02,-0.08
3.012,4.82,-1.13,-4.14,0.81,0.58,-0.02,-0.08
3.039,5.23,0.73,-3.01,0.8,0.59,-0.03,-0.08
3.0521,4.53,-0.17,-1.78,0.79,0.6,-0.04,-0.07
3.0722,4.5,-2.15,-3.02,0.79,0.61,-0.04,-0.07
3.1009,5.08,-2.69,-4.35,0.79,0.61,-0.04,-0.07
3.1138,2.26,-0.73,-5.1,0.79,0.61,-0.04,-0.07
3.1318,1.68,-0.09,-5.1,0.79,0.61,-0.04,-0.07
3.1518,0.51,0.19,-5.42,0.78,0.62,-0.04,-0.07
3.1718,1.59,-0.59,-5.79,0.78,0.62,-0.04,-0.07
3.2031,2.98,-0.46,-4.96,0.77,0.63,-0.05,-0.07
3.2221,1.26,-1.06,-3.02,0.77,0.63,-0.06,-0.07
3.2418,1.33,-0.16,-2.67,0.77,0.63,-0.06,-0.08
3.2878,1.57,1.11,-2.3,0.77,0.63,-0.07,-0.08
3.3018,0.94,-0.5,-0.01,0.76,0.63,-0.1,-0.08
3.3218,1.0,-1.13,0.27,0.76,0.63,-0.11,-0.09
3.3547,0.99,1.11,1.51,0.76,0.64,-0.11,-0.09
3.3739,0.58,0.47,1.99,0.75,0.64,-0.14,-0.1
3.3918,1.45,-1.98,2.04,0.75,0.64,-0.15,-0.11
3.4287,1.59,-1.15,2.56,0.74,0.64,-0.16,-0.12
3.4408,1.48,0.32,3.13,0.73,0.65,-0.17,-0.13
3.4618,1.54,-0.74,3.37,0.72,0.65,-0.18,-0.14
3.4967,1.44,-1.82,2.77,0.71,0.66,-0.19,-0.15
3.5126,1.81,-1.67,2.56,0.7,0.66,-0.21,-0.17
3.5324,2.21,-2.57,2.73,0.69,0.66,-0.22,-0.19
3.5838,1.39,-1.52,2.91,0.69,0.66,-0.22,-0.2
3.6075,-1.27,-3.91,3.85,0.67,0.65,-0.26,-0.25
3.6868,-0.62,-2.12,3.5,0.66,0.65,-0.27,-0.26
3.7021,-2.01,0.63,2.99,0.65,0.64,-0.29,-0.3
3.7221,-2.01,-0.05,2.31,0.64,0.64,-0.3,-0.3
3.7919,-1.32,-1.48,2.72,0.64,0.64,-0.3,-0.3
3.8118,0.63,-1.43,2.92,0.64,0.63,-0.31,-0.31
3.8319,2.29,-0.92,2.2,0.64,0.63,-0.31,-0.3
3.8651,2.31,-0.92,2.77,0.64,0.63,-0.31,-0.3
3.8817,3.12,-1.47,4.67,0.65,0.63,-0.3,-0.3
3.902,3.84,-0.72,4.88,0.65,0.63,-0.29,-0.3
3.9221,5.76,-1.56,4.52,0.66,0.63,-0.28,-0.3
3.9419,6.37,-1.68,4.51,0.67,0.63,-0.26,-0.29
3.9621,5.42,-1.33,4.77,0.68,0.62,-0.24,-0.29
3.9898,3.14,-1.1,4.27,0.7,0.62,-0.23,-0.28
4.0126,1.69,-0.8,3.4,0.72,0.6,-0.2,-0.28
4.0881,1.2,-2.48,3.55,0.74,0.58,-0.19,-0.27
4.1136,-2.48,0.22,-0.03,0.81,0.52,-0.1,-0.25
4.1941,-2.31,-1.2,0.43,0.83,0.5,-0.09,-0.24
4.2121,-4.75,1.16,-0.55,0.88,0.44,-0.02,-0.2
4.233,-4.79,-1.65,-0.95,0.88,0.43,-0.02,-0.18
4.3062,-5.76,-1.72,-2.91,0.89,0.43,-0.0,-0.16
4.3221,-2.22,-1.71,-3.11,0.89,0.43,0.0,-0.14
4.3431,-3.03,-0.45,-4.44,0.89,0.43,0.0,-0.13
4.3617,-2.02,0.06,-5.35,0.89,0.44,0.01,-0.13
4.3828,-1.32,-0.14,-5.47,0.88,0.45,0.0,-0.12
4.4208,0.82,-3.63,-4.09,0.88,0.46,-0.01,-0.12
4.4351,-0.06,-1.88,-6.66,0.87,0.48,-0.0,-0.12
4.4534,0.1,-0.88,-6.36,0.86,0.49,0.01,-0.13
4.5312,0.89,0.12,-5.27,0.86,0.5,0.01,-0.13
4.5482,1.86,0.88,-5.16,0.83,0.54,0.01,-0.1
4.5633,1.39,-2.07,-2.62,0.83,0.55,0.01,-0.09
4.6208,3.07,-2.74,-4.78,0.82,0.56,0.01,-0.09
4.6327,3.0,0.18,-2.91,0.81,0.58,0.0,-0.07
4.6531,3.76,-1.38,-3.49,0.81,0.58,-0.01,-0.07
4.6809,3.71,-1.4,-3.56,0.81,0.59,-0.02,-0.06
4.7078,3.56,-1.82,-4.33,0.81,0.59,-0.02,-0.06
4.7228,2.86,-1.25,-5.84,0.8,0.59,-0.02,-0.06
4.7428,2.53,-0.63,-7.1,0.8,0.59,-0.02,-0.06
4.7687,2.49,1.0,-7.12,0.8,0.59,-0.01,-0.06
4.7827,2.27,1.14,-6.64,0.8,0.6,-0.02,-0.07
4.8027,2.51,-0.36,-6.62,0.8,0.6,-0.03,-0.07
4.8458,2.6,0.46,-6.59,0.79,0.6,-0.03,-0.08
4.8628,0.12,1.12,-2.66,0.79,0.6,-0.06,-0.09
4.8828,-0.13,-1.21,-1.34,0.79,0.6,-0.07,-0.1
4.9118,2.52,-1.66,0.44,0.78,0.61,-0.08,-0.11
4.933,1.95,-0.06,1.83,0.77,0.62,-0.1,-0.12
4.9527,0.52,0.06,2.1,0.76,0.62,-0.12,-0.13
4.975,2.05,-3.23,2.48,0.75,0.63,-0.13,-0.14
5.0438,2.15,-2.94,2.54,0.74,0.64,-0.14,-0.15
5.0627,1.14,-4.63,2.91,0.7,0.67,-0.18,-0.18
5.0877,4.51,-1.9,2.6,0.69,0.67,-0.19,-0.19
5.1237,4.31,-1.23,2.29,0.68,0.67,-0.21,-0.19
5.1435,0.13,-4.41,2.49,0.67,0.67,-0.24,-0.21
5.1632,-1.41,-2.32,3.7,0.66,0.68,-0.25,-0.21
5.1901,-0.95,-0.8,3.54,0.65,0.68,-0.25,-0.22
5.2028,-0.79,-0.22,4.61,0.65,0.68,-0.26,-0.22
5.2283,-0.85,0.94,5.27,0.64,0.68,-0.27,-0.23
5.2958,-1.85,0.85,6.71,0.64,0.68,-0.28,-0.23
5.3127,0.27,-0.54,3.21,0.64,0.68,-0.28,-0.23
5.3328,0.09,-0.39,2.89,0.64,0.68,-0.27,-0.23
5.3527,-1.89,1.07,2.6,0.65,0.68,-0.27,-0.23
5.3727,-2.04,0.98,1.7,0.65,0.68,-0.26,-0.23
5.3927,-1.09,0.0,1.33,0.65,0.68,-0.26,-0.23
5.4128,-0.03,-1.28,1.64,0.65,0.67,-0.26,-0.23
5.4481,0.05,-2.27,2.4,0.65,0.67,-0.26,-0.23
5.4627,0.16,-0.24,1.35,0.66,0.67,-0.25,-0.23
5.4827,0.3,-0.29,0.77,0.66,0.67,-0.25,-0.23
5.5238,-0.54,-1.17,0.86,0.66,0.66,-0.25,-0.23
5.5427,-0.27,-0.38,0.41,0.67,0.66,-0.25,-0.23
5.5627,0.46,0.52,-0.27,0.67,0.66,-0.24,-0.23
5.5828,0.53,1.27,-0.65,0.68,0.66,-0.24,-0.23
5.6181,0.53,0.83,-0.63,0.68,0.66,-0.24,-0.23
5.6338,0.46,-0.88,-0.54,0.68,0.65,-0.23,-0.23
5.6527,0.11,-0.15,-0.7,0.69,0.65,-0.23,-0.23
5.6739,0.23,0.46,-0.76,0.69,0.65,-0.22,-0.22
5.693,0.43,0.01,-0.7,0.69,0.65,-0.22,-0.22
5.73,0.46,-0.16,-0.64,0.69,0.65,-0.22,-0.22
5.753,-0.07,-0.16,-0.84,0.7,0.65,-0.21,-0.23
5.7958,-0.52,-0.63,-0.54,0.7,0.65,-0.21,-0.23
5.8127,-0.4,-0.16,-0.4,0.7,0.65,-0.21,-0.23
5.8332,0.17,0.19,-0.56,0.7,0.64,-0.21,-0.23
5.9049,0.25,0.2,-0.4,0.7,0.64,-0.21,-0.23
5.9231,0.56,0.16,-0.19,0.7,0.64,-0.21,-0.23
5.9428,0.6,0.33,-0.26,0.7,0.64,-0.21,-0.22
6.0138,0.22,0.35,-0.32,0.7,0.64,-0.21,-0.22
6.0333,-0.02,0.01,-0.1,0.7,0.64,-0.21,-0.22
6.0543,0.07,0.05,-0.09,0.7,0.64,-0.21,-0.22
