time_seconds,acc_x,acc_y,acc_z,q_w,q_x,q_y,q_z
0.0203,0.5,-0.71,2.94,0.58,0.67,-0.34,-0.32
0.0405,-0.24,-0.97,3.33,0.58,0.67,-0.34,-0.32
0.0964,0.05,-0.63,3.26,0.58,0.67,-0.34,-0.32
0.1111,1.76,0.08,2.77,0.58,0.66,-0.34,-0.33
0.1301,1.66,-1.95,2.46,0.58,0.65,-0.35,-0.33
0.1834,1.99,-2.75,2.12,0.59,0.65,-0.35,-0.34
0.2001,2.8,-1.27,-1.19,0.6,0.65,-0.33,-0.34
0.2211,0.83,-1.61,3.19,0.61,0.65,-0.31,-0.33
0.2753,1.66,-0.82,2.5,0.62,0.65,-0.3,-0.33
0.2901,1.43,-0.86,2.55,0.65,0.64,-0.27,-0.32
0.3141,1.7,-1.65,2.41,0.66,0.63,-0.26,-0.32
0.3744,0.76,-0.96,2.2,0.67,0.63,-0.24,-0.32
0.3912,0.56,-0.7,1.21,0.71,0.6,-0.19,-0.31
0.4131,-0.09,-0.42,-0.15,0.73,0.59,-0.18,-0.31
0.4703,-0.82,0.35,-0.35,0.74,0.58,-0.16,-0.3
0.4816,-2.5,-1.67,-0.86,0.77,0.55,-0.14,-0.27
0.5064,-2.4,-2.57,-2.05,0.78,0.54,-0.13,-0.27
0.5654,-2.11,-1.45,-2.25,0.79,0.54,-0.11,-0.27
0.5814,-3.27,0.13,-1.21,0.81,0.53,-0.08,-0.25
0.6012,-3.55,-0.77,-1.15,0.81,0.52,-0.07,-0.25
0.6484,-0.27,0.55,-1.77,0.81,0.53,-0.07,-0.24
0.6611,-1.14,-1.3,-1.79,0.82,0.53,-0.07,-0.22
0.6835,-0.97,-1.08,-2.15,0.82,0.53,-0.07,-0.22
0.7324,-0.84,0.05,-1.96,0.82,0.53,-0.07,-0.21
0.7515,-1.47,-0.9,-2.19,0.82,0.54,-0.08,-0.18
0.7715,-1.53,-1.89,-2.55,0.82,0.55,-0.08,-0.18
0.7912,-0.98,-1.32,-2.91,0.81,0.55,-0.07,-0.18
0.8111,-0.63,0.92,-1.94,0.81,0.56,-0.07,-0.18
0.8311,0.53,1.11,-2.74,0.8,0.57,-0.07,-0.17
0.8844,1.44,0.46,-3.36,0.8,0.57,-0.07,-0.16
0.8931,-0.23,0.1,-3.47,0.79,0.59,-0.07,-0.16
0.9116,1.21,0.88,-3.68,0.78,0.59,-0.07,-0.16
0.9504,2.48,2.02,-3.64,0.78,0.6,-0.07,-0.16
0.9611,1.1,-0.86,-4.27,0.78,0.61,-0.09,-0.15
0.9816,1.32,-1.64,-4.34,0.77,0.61,-0.09,-0.14
1.0017,1.6,0.41,-4.18,0.77,0.62,-0.09,-0.15
1.0287,1.78,1.07,-3.53,0.76,0.62,-0.09,-0.15
1.0516,2.24,0.74,-4.22,0.76,0.63,-0.1,-0.14
1.0783,2.28,0.52,-4.34,0.76,0.63,-0.11,-0.14
1.1014,2.04,0.08,-4.33,0.75,0.63,-0.11,-0.14
1.1624,1.98,0.45,-4.09,0.75,0.63,-0.11,-0.15
1.1831,0.1,0.23,-2.98,0.74,0.64,-0.13,-0.15
1.2011,1.2,0.22,-2.66,0.74,0.64,-0.14,-0.16
1.2644,0.87,0.35,-2.3,0.73,0.65,-0.15,-0.16
1.2812,-0.07,0.16,-0.24,0.71,0.66,-0.18,-0.17
1.3012,0.64,-0.65,-0.52,0.7,0.67,-0.2,-0.17
1.3544,1.18,-1.41,0.11,0.69,0.67,-0.21,-0.18
1.371,0.92,-0.47,1.24,0.66,0.69,-0.23,-0.2
1.3911,2.28,-0.79,1.51,0.64,0.69,-0.24,-0.21
1.4524,2.8,-1.81,1.71,0.63,0.7,-0.25,-0.22
1.4732,1.87,-0.48,1.7,0.6,0.71,-0.27,-0.24
1.4911,1.82,-0.21,2.04,0.59,0.71,-0.28,-0.25
1.5114,0.5,-1.99,2.12,0.59,0.71,-0.29,-0.26
1.5784,-0.36,-2.9,2.48,0.58,0.71,-0.3,-0.27
1.6073,1.61,-0.92,2.46,0.55,0.72,-0.33,-0.28
1.6748,0.83,-2.48,2.9,0.54,0.72,-0.34,-0.29
1.6911,2.22,-1.51,3.3,0.53,0.72,-0.35,-0.29
1.7121,2.58,-1.19,3.44,0.53,0.72,-0.36,-0.29
1.7466,3.44,-1.41,4.16,0.53,0.71,-0.36,-0.29
1.7611,4.87,-1.56,5.07,0.53,0.71,-0.35,-0.29
1.7811,5.16,-1.71,5.95,0.54,0.71,-0.35,-0.3
1.811,5.6,-1.6,6.09,0.55,0.7,-0.35,-0.29
1.8311,5.08,-2.41,4.99,0.57,0.69,-0.34,-0.29
1.8541,3.69,-3.43,3.98,0.58,0.68,-0.33,-0.29
1.8711,3.46,-3.29,3.88,0.6,0.67,-0.32,-0.29
1.9363,2.52,-1.59,4.0,0.62,0.67,-0.3,-0.29
1.951,2.68,-1.49,0.39,0.67,0.64,-0.25,-0.27
1.972,2.62,-0.7,0.12,0.69,0.63,-0.23,-0.26
2.0283,-0.56,-1.48,1.0,0.71,0.62,-0.21,-0.25
2.0526,-0.06,0.11,-0.99,0.76,0.58,-0.16,-0.23
2.0954,-1.55,-0.9,-0.69,0.78,0.57,-0.14,-0.23
2.1121,-4.21,-1.57,-0.95,0.8,0.55,-0.12,-0.2
2.1321,-4.37,-0.93,-1.46,0.81,0.55,-0.1,-0.19
2.1874,-4.64,-1.03,-2.4,0.81,0.55,-0.09,-0.18
2.2021,-3.25,0.23,-3.29,0.82,0.55,-0.06,-0.16
2.2222,-4.18,-1.07,-3.49,0.82,0.55,-0.06,-0.16
2.2694,-4.46,-1.18,-3.62,0.81,0.56,-0.05,-0.15
2.282,-2.17,0.72,-4.97,0.8,0.58,-0.05,-0.14
2.302,-2.29,0.63,-4.93,0.79,0.59,-0.05,-0.14
2.3696,-2.48,0.1,-4.82,0.78,0.61,-0.05,-0.13
2.3826,-0.45,-0.95,-5.86,0.75,0.64,-0.06,-0.12
2.4025,-0.98,0.76,-5.33,0.74,0.65,-0.06,-0.13
2.4454,1.42,2.23,-5.48,0.73,0.66,-0.07,-0.12
2.4632,0.48,-0.57,-5.19,0.72,0.68,-0.08,-0.11
2.4834,0.09,0.23,-5.3,0.71,0.69,-0.09,-0.11
2.5284,1.81,0.51,-5.32,0.7,0.7,-0.09,-0.12
2.5421,2.7,-0.83,-5.33,0.69,0.71,-0.1,-0.11
2.5621,1.93,0.47,-5.42,0.69,0.71,-0.1,-0.11
2.5825,2.28,0.45,-5.61,0.69,0.71,-0.1,-0.11
2.6454,2.67,0.55,-5.6,0.69,0.71,-0.1,-0.11
2.662,0.25,0.05,-4.0,0.69,0.71,-0.11,-0.11
2.682,1.29,-0.3,-4.22,0.69,0.71,-0.12,-0.12
2.7433,1.14,0.3,-3.9,0.68,0.71,-0.12,-0.12
2.7624,1.24,0.42,-2.74,0.67,0.71,-0.15,-0.13
2.787,1.28,0.55,-2.07,0.67,0.72,-0.16,-0.13
2.8414,1.41,-0.8,-2.05,0.66,0.72,-0.18,-0.14
2.8519,1.41,-0.59,0.14,0.63,0.73,-0.21,-0.15
2.8728,2.41,0.12,1.78,0.62,0.73,-0.22,-0.16
2.9014,2.67,-2.21,3.12,0.62,0.74,-0.23,-0.17
2.914,0.58,-3.14,7.21,0.61,0.74,-0.23,-0.18
2.9323,2.76,-3.07,7.13,0.6,0.74,-0.23,-0.19
3.0074,7.46,-1.26,5.38,0.59,0.74,-0.24,-0.2
3.0221,1.07,-3.41,3.27,0.59,0.73,-0.26,-0.23
3.042,1.74,-2.62,3.39,0.59,0.72,-0.26,-0.24
3.1086,-1.39,-1.23,4.76,0.6,0.72,-0.26,-0.26
3.122,1.66,-0.15,1.53,0.59,0.71,-0.27,-0.27
3.1421,-0.65,0.27,2.59,0.59,0.71,-0.27,-0.27
3.2094,-0.62,-0.31,2.8,0.59,0.71,-0.27,-0.28
3.2326,3.64,-2.25,4.86,0.59,0.71,-0.27,-0.27
3.2634,4.2,-1.92,4.76,0.6,0.71,-0.27,-0.27
3.282,3.7,-1.62,4.52,0.61,0.7,-0.26,-0.27
3.302,4.88,-1.86,3.64,0.62,0.69,-0.25,-0.26
3.3226,3.04,-1.84,3.71,0.64,0.69,-0.24,-0.26
3.3514,1.82,-1.53,3.55,0.65,0.68,-0.23,-0.25
3.3728,1.87,-0.11,2.89,0.67,0.66,-0.21,-0.25
3.3955,2.71,-0.41,1.87,0.69,0.65,-0.2,-0.25
3.4125,1.28,-0.92,1.86,0.71,0.64,-0.19,-0.24
3.4676,0.52,-0.78,1.31,0.72,0.62,-0.18,-0.24
3.4835,-0.64,-1.43,-0.53,0.76,0.59,-0.16,-0.22
3.5022,-2.14,-1.5,0.29,0.77,0.58,-0.14,-0.22
3.5368,-2.37,-1.63,-0.68,0.79,0.57,-0.13,-0.21
3.5565,-4.11,0.41,-1.24,0.8,0.56,-0.11,-0.2
3.5735,-4.32,0.2,-1.47,0.81,0.55,-0.1,-0.19
3.5937,-4.07,-1.0,-1.89,0.81,0.55,-0.09,-0.18
3.6226,-3.37,-0.96,-2.78,0.82,0.55,-0.08,-0.17
3.6435,-3.49,-0.32,-2.96,0.82,0.55,-0.07,-0.16
3.6621,-3.73,-1.84,-3.65,0.82,0.55,-0.06,-0.15
3.6822,-2.45,-1.35,-4.4,0.82,0.56,-0.06,-0.14
3.7024,-0.13,0.84,-5.05,0.81,0.56,-0.05,-0.13
3.724,-0.93,1.0,-4.81,0.81,0.57,-0.05,-0.13
3.804,-2.89,-0.4,-4.64,0.81,0.58,-0.05,-0.12
3.8232,-0.13,-0.15,-6.41,0.78,0.62,-0.05,-0.11
3.8421,0.78,0.21,-6.55,0.77,0.63,-0.05,-0.11
3.9007,1.96,0.31,-6.28,0.76,0.64,-0.06,-0.11
3.9137,3.42,-0.51,-6.81,0.74,0.66,-0.06,-0.11
3.9334,2.68,0.91,-5.72,0.74,0.66,-0.06,-0.11
3.9763,2.12,1.2,-5.31,0.74,0.66,-0.07,-0.11
3.993,2.68,-0.3,-6.0,0.74,0.66,-0.09,-0.1
4.013,1.72,0.36,-5.01,0.74,0.66,-0.09,-0.1
4.0825,0.19,0.66,-4.37,0.74,0.66,-0.1,-0.1
4.1029,1.13,0.45,-2.56,0.72,0.67,-0.13,-0.11
4.128,0.36,-0.68,-2.22,0.72,0.67,-0.14,-0.11
4.1904,0.04,-1.47,-1.43,0.71,0.68,-0.15,-0.12
4.2133,1.01,-1.36,0.63,0.67,0.7,-0.19,-0.15
4.2905,0.46,-2.49,2.0,0.66,0.71,-0.2,-0.15
4.3132,2.25,-1.59,5.39,0.6,0.74,-0.24,-0.18
4.3905,2.66,-3.03,5.49,0.59,0.74,-0.26,-0.19
4.4136,1.14,-1.12,4.68,0.55,0.75,-0.29,-0.21
4.4463,0.55,-2.12,3.6,0.55,0.75,-0.3,-0.21
4.4633,0.05,-1.4,3.1,0.54,0.75,-0.3,-0.22
4.4831,0.59,-0.58,2.39,0.54,0.75,-0.31,-0.23
4.5083,0.57,0.01,2.07,0.54,0.75,-0.31,-0.23
4.5234,0.7,0.55,2.14,0.54,0.75,-0.31,-0.23
4.5431,0.92,-0.35,1.92,0.53,0.75,-0.32,-0.23
4.5704,1.49,-1.18,1.91,0.53,0.75,-0.32,-0.23
4.5829,2.03,-1.35,2.13,0.53,0.75,-0.32,-0.24
4.603,2.63,-1.13,2.38,0.53,0.75,-0.32,-0.24
4.6704,2.49,-1.27,2.75,0.54,0.75,-0.31,-0.24
4.6934,5.41,-1.0,4.0,0.56,0.74,-0.29,-0.23
4.7544,4.49,-1.25,3.98,0.57,0.73,-0.29,-0.23
4.773,2.33,-2.34,4.12,0.62,0.71,-0.26,-0.22
4.793,1.88,-3.07,3.62,0.64,0.7,-0.25,-0.22
4.8604,2.36,-1.56,2.6,0.66,0.68,-0.23,-0.21
4.8835,-0.03,-2.84,0.11,0.73,0.63,-0.18,-0.2
4.9244,-0.15,-2.25,-0.55,0.75,0.62,-0.16,-0.2
4.9436,-0.8,-0.05,-1.85,0.78,0.59,-0.12,-0.19
4.9634,-3.48,-0.11,-1.63,0.79,0.57,-0.11,-0.19
5.0377,-4.34,-1.29,-2.2,0.8,0.56,-0.09,-0.18
5.0545,-4.09,-1.11,-2.95,0.82,0.55,-0.06,-0.16
5.073,-5.25,-1.78,-3.9,0.82,0.55,-0.05,-0.15
5.1064,-4.64,-0.31,-4.21,0.82,0.56,-0.04,-0.15
5.1241,-3.71,0.32,-4.27,0.81,0.57,-0.04,-0.14
5.148,-3.61,-2.02,-5.22,0.8,0.58,-0.04,-0.13
5.2124,-3.51,-0.45,-5.73,0.79,0.59,-0.04,-0.13
5.223,-0.48,-2.17,-5.98,0.77,0.63,-0.05,-0.12
5.2444,-1.02,-2.76,-6.23,0.76,0.64,-0.05,-0.11
5.3018,1.79,0.43,-6.69,0.74,0.66,-0.05,-0.11
5.323,2.88,-0.38,-6.12,0.72,0.69,-0.07,-0.1
5.3445,3.79,0.29,-5.47,0.71,0.69,-0.07,-0.1
5.3635,3.14,-0.23,-5.15,0.71,0.69,-0.08,-0.1
5.3874,1.75,-0.69,-5.16,0.71,0.7,-0.08,-0.1
5.4044,1.75,0.4,-5.37,0.7,0.7,-0.08,-0.1
5.4245,1.63,1.15,-5.37,0.7,0.7,-0.09,-0.09
5.4439,1.68,0.16,-5.56,0.7,0.7,-0.1,-0.1
5.4652,1.56,-1.84,-5.92,0.7,0.7,-0.1,-0.1
5.485,-0.23,-1.16,-5.04,0.7,0.7,-0.1,-0.09
5.5047,1.11,-0.17,-4.97,0.7,0.7,-0.11,-0.09
5.5239,53.0,-4.93,0.7,0.7,-0.11,-0.09
5.5441,0.01,0.67,-3.45,0.7,0.7,-0.12,-0.09
5.5641,-0.26,-0.43,-2.77,0.69,0.7,-0.13,-0.1
5.594,1.17,-0.84,-2.13,0.68,0.71,-0.14,-0.1
5.6141,1.91,0.72,-1.27,0.68,0.71,-0.15,-0.11
5.6914,0.4,0.93,0.14,0.67,0.72,-0.17,-0.11
5.7142,0.11,-0.81,1.05,0.62,0.74,-0.23,-0.15
5.7913,0.09,-1.36,1.27,0.6,0.74,-0.25,-0.15
5.8039,1.99,-1.52,5.54,0.54,0.76,-0.3,-0.18
5.824,0.91,-2.68,6.95,0.53,0.76,-0.32,-0.19
5.8933,2.24,-3.84,6.93,0.51,0.77,-0.33,-0.2
5.9049,0.43,-3.64,4.89,0.49,0.76,-0.36,-0.22
5.9246,-0.13,-2.53,4.83,0.49,0.76,-0.36,-0.22
5.9516,1.31,-0.02,3.5,0.48,0.76,-0.37,-0.22
5.9744,0.29,-0.37,2.45,0.48,0.76,-0.38,-0.23
6.0337,-0.15,-0.57,2.11,0.48,0.75,-0.38,-0.23
6.044,1.3,0.14,0.82,0.48,0.75,-0.39,-0.24
6.0644,-0.06,0.3,0.78,0.48,0.75,-0.39,-0.25
6.1236,0.73,-2.12,1.57,0.48,0.74,-0.4,-0.25
6.1439,0.2,1.46,1.39,0.48,0.74,-0.4,-0.25
6.164,0.93,-1.17,1.75,0.48,0.74,-0.4,-0.25
6.2314,1.52,-3.31,3.04,0.48,0.74,-0.4,-0.25
6.2541,7.02,-0.22,4.84,0.5,0.74,-0.37,-0.24
6.3313,6.73,-0.77,4.71,0.52,0.74,-0.36,-0.24
6.3541,3.28,-1.55,2.38,0.6,0.71,-0.3,-0.23
6.4313,4.09,-2.9,0.82,0.62,0.69,-0.28,-0.23
6.456,-1.89,-1.15,-1.14,0.72,0.64,-0.17,-0.2
6.5375,-0.97,0.62,-2.07,0.75,0.62,-0.12,-0.19
6.5644,-4.86,-0.74,-0.71,0.8,0.57,-0.05,-0.17
6.6294,-5.45,-1.27,-2.07,0.81,0.56,-0.04,-0.16
6.6439,-3.97,-0.55,-2.1,0.83,0.54,-0.04,-0.14
6.6639,-5.5,-3.84,-2.76,0.83,0.54,-0.04,-0.13
6.7373,-6.95,-5.31,-2.82,0.83,0.55,-0.04,-0.13
6.7553,-1.69,-0.45,-4.73,0.8,0.58,-0.04,-0.12
6.7772,-2.89,-3.22,-5.41,0.8,0.59,-0.05,-0.12
6.8434,-2.91,-1.34,-5.9,0.79,0.61,-0.05,-0.12
6.8641,1.33,-2.29,-8.14,0.75,0.65,-0.07,-0.11
6.8899,3.14,0.44,-8.95,0.73,0.67,-0.07,-0.1
6.9564,7.02,0.85,-7.93,0.73,0.68,-0.08,-0.11
6.9753,4.81,1.3,-6.87,0.71,0.69,-0.08,-0.1
6.9954,4.38,0.91,-6.91,0.72,0.69,-0.09,-0.1
7.0156,2.96,-0.11,-5.88,0.72,0.68,-0.09,-0.09
7.0344,1.48,0.71,-5.24,0.72,0.68,-0.09,-0.09
7.0974,0.79,1.57,-4.57,0.72,0.68,-0.09,-0.09
7.115,-0.46,0.03,-2.61,0.72,0.68,-0.12,-0.09
7.135,-1.77,-0.34,-1.93,0.72,0.68,-0.13,-0.09
7.1706,-0.58,0.39,-1.73,0.71,0.68,-0.14,-0.09
7.1904,1.6,-0.11,-1.01,0.7,0.69,-0.16,-0.1
7.2055,0.2,-0.35,-0.4,0.69,0.7,-0.17,-0.11
7.2809,-0.59,-1.58,0.01,0.68,0.7,-0.19,-0.11
7.2955,2.48,-0.54,0.69,0.63,0.73,-0.22,-0.16
7.3173,1.87,-0.75,1.22,0.62,0.73,-0.24,-0.16
7.3794,1.0,-0.83,2.21,0.6,0.74,-0.27,-0.17
7.3969,0.91,-5.05,6.77,0.55,0.74,-0.33,-0.19
7.4148,0.29,-5.28,7.38,0.54,0.74,-0.34,-0.2
7.4843,1.65,-3.69,8.18,0.53,0.74,-0.35,-0.21
7.5049,0.72,-1.45,4.36,0.52,0.74,-0.37,-0.23
7.5248,1.12,-0.53,3.08,0.52,0.73,-0.37,-0.23
7.5944,0.31,-0.67,2.31,0.52,0.73,-0.37,-0.24
7.6149,-0.48,-1.08,1.27,0.52,0.73,-0.38,-0.25
7.6348,0.37,-1.04,1.79,0.52,0.73,-0.37,-0.25
7.7063,1.38,-0.91,2.23,0.52,0.73,-0.37,-0.25
7.7253,5.6,-2.12,4.17,0.54,0.73,-0.34,-0.24
7.7452,5.35,-1.5,4.12,0.54,0.73,-0.33,-0.24
7.7825,5.19,-0.98,4.11,0.56,0.73,-0.31,-0.24
7.7954,5.43,-1.51,4.29,0.58,0.72,-0.3,-0.24
7.8172,4.98,-3.3,3.0,0.6,0.71,-0.28,-0.24
7.8537,4.84,-3.57,2.07,0.62,0.7,-0.27,-0.23
7.8752,2.05,-1.98,1.32,0.67,0.67,-0.23,-0.22
7.8976,0.92,-1.61,-0.01,0.7,0.65,-0.21,-0.22
7.915,0.34,-1.45,-0.59,0.72,0.63,-0.19,-0.21
7.9467,-0.54,-1.24,-1.1,0.74,0.62,-0.16,-0.2
7.9671,-3.46,0.37,-0.97,0.77,0.59,-0.13,-0.19
7.9855,-3.98,0.47,-1.14,0.79,0.58,-0.11,-0.18
8.0056,-3.31,-0.0,-2.11,0.8,0.57,-0.09,-0.18
8.0344,-3.41,0.74,-2.21,0.81,0.56,-0.07,-0.17
8.0559,-3.12,1.2,-2.04,0.82,0.54,-0.06,-0.17
8.0853,-5.01,-0.56,-1.63,0.83,0.53,-0.05,-0.15
8.1604,-5.44,-2.55,-2.62,0.83,0.53,-0.05,-0.14
8.1749,-1.98,1.38,-3.45,0.83,0.54,-0.04,-0.13
8.1949,-2.64,-2.09,-3.84,0.83,0.55,-0.05,-0.13
8.2683,-2.74,-3.38,-3.83,0.82,0.56,-0.05,-0.12
8.2852,-0.55,-0.61,-4.57,0.8,0.59,-0.05,-0.11
8.3099,0.38,-0.64,-4.89,0.79,0.6,-0.05,-0.11
8.3249,2.22,-0.14,-5.17,0.78,0.61,-0.05,-0.12
8.3449,2.08,-0.87,-4.74,0.77,0.62,-0.06,-0.11
8.4164,2.1,-1.45,-4.89,0.76,0.63,-0.06,-0.11
8.4359,3.31,-0.06,-5.7,0.74,0.66,-0.07,-0.11
8.4559,2.96,-0.13,-5.55,0.74,0.66,-0.08,-0.11
8.4803,1.61,0.8,-5.76,0.73,0.67,-0.08,-0.1
8.496,0.56,0.29,-6.6,0.73,0.67,-0.08,-0.1
8.5204,1.67,0.03,-6.96,0.73,0.67,-0.09,-0.11
8.5363,2.25,0.35,-6.54,0.73,0.67,-0.09,-0.11
8.5784,1.22,0.39,-5.55,0.73,0.66,-0.1,-0.11
8.5959,0.72,-0.16,-4.9,0.73,0.66,-0.11,-0.12
8.6159,1.41,-0.31,-3.75,0.73,0.66,-0.12,-0.12
8.6876,-0.16,0.02,-3.2,0.73,0.66,-0.13,-0.13
8.7117,3.07,-0.69,-1.19,0.7,0.68,-0.16,-0.14
8.7363,1.04,-0.7,0.24,0.68,0.69,-0.18,-0.15
8.7566,1.14,-2.57,-0.12,0.67,0.7,-0.19,-0.16
8.8056,3.35,-2.2,-0.05,0.65,0.72,-0.2,-0.16
8.8315,3.48,-0.36,1.15,0.61,0.73,-0.23,-0.18
8.8726,2.47,-2.79,1.03,0.59,0.74,-0.25,-0.19
8.8863,2.09,-1.71,3.7,0.56,0.76,-0.28,-0.21
8.9117,0.88,-1.5,5.99,0.54,0.76,-0.29,-0.22
8.9416,-0.05,-3.43,7.49,0.52,0.76,-0.31,-0.23
8.9562,-0.03,-5.19,9.34,0.5,0.76,-0.33,-0.24
8.976,0.82,-4.96,9.86,0.49,0.77,-0.33,-0.24
9.0133,1.77,-2.54,8.93,0.49,0.77,-0.33,-0.24
9.026,2.76,-1.63,5.7,0.49,0.77,-0.34,-0.24
9.0463,2.97,-1.06,3.85,0.49,0.77,-0.33,-0.25
9.0954,2.38,-0.64,1.43,0.49,0.76,-0.33,-0.25
9.1159,-0.16,-0.32,-0.71,0.5,0.75,-0.34,-0.26
9.1363,-0.62,-0.68,-0.41,0.5,0.75,-0.34,-0.26
9.1894,-0.3,-0.84,-0.52,0.5,0.75,-0.34,-0.26
9.2062,1.24,0.8,0.89,0.5,0.75,-0.34,-0.26
9.2259,1.49,-0.22,1.96,0.51,0.75,-0.34,-0.26
9.2461,3.9,-1.33,2.55,0.51,0.75,-0.33,-0.26
9.2663,4.97,-1.54,2.99,0.51,0.75,-0.33,-0.26
9.3357,4.95,-1.5,3.8,0.52,0.75,-0.32,-0.26
9.3561,3.79,-2.0,2.99,0.57,0.73,-0.29,-0.26
9.3764,3.39,-1.53,2.75,0.58,0.72,-0.27,-0.25
9.3991,2.23,-1.26,2.52,0.6,0.71,-0.26,-0.25
9.4673,1.07,-1.75,1.93,0.62,0.7,-0.24,-0.25
9.486,-0.35,-0.48,0.65,0.69,0.66,-0.17,-0.23
9.506,-2.12,-0.69,0.8,0.71,0.65,-0.16,-0.23
9.5343,-3.17,-1.71,0.58,0.73,0.63,-0.14,-0.22
9.5519,-3.24,-1.96,0.21,0.74,0.62,-0.12,-0.21
9.5759,-0.84,-1.67,-0.48,0.76,0.61,-0.09,-0.2
9.6498,-2.18,-0.06,-0.2,0.78,0.6,-0.08,-0.19
9.6659,-2.79,-1.65,-1.59,0.8,0.57,-0.05,-0.16
9.6862,-1.93,-1.28,-2.17,0.81,0.57,-0.05,-0.15
9.7374,-0.28,-0.67,-2.56,0.81,0.57,-0.04,-0.15
9.7562,-3.1,-1.29,-2.9,0.81,0.57,-0.03,-0.13
9.7763,-1.46,0.83,-3.3,0.81,0.57,-0.03,-0.13
9.8097,-0.77,1.35,-3.56,0.81,0.57,-0.03,-0.12
9.8262,-3.54,-0.2,-3.57,0.81,0.58,-0.03,-0.12
9.8463,-4.05,-0.61,-3.84,0.8,0.59,-0.03,-0.11
9.8674,-1.33,-0.16,-4.67,0.79,0.6,-0.03,-0.11
9.933,-0.63,0.27,-5.18,0.78,0.61,-0.03,-0.11
9.9574,0.95,0.86,-6.27,0.76,0.64,-0.05,-0.11
10.0264,0.7,-1.25,-6.31,0.75,0.65,-0.06,-0.11
10.0495,2.77,0.34,-5.41,0.72,0.68,-0.08,-0.1
10.0885,2.61,1.28,-5.52,0.72,0.69,-0.08,-0.1
10.1068,1.94,1.16,-5.34,0.71,0.69,-0.09,-0.1
10.1272,1.95,-0.39,-5.74,0.71,0.69,-0.09,-0.1
10.1974,1.64,-1.05,-5.14,0.71,0.69,-0.1,-0.11
10.217,1.14,0.55,-4.44,0.7,0.7,-0.11,-0.11
10.2369,0.99,0.17,-3.77,0.7,0.7,-0.12,-0.11
10.2874,0.92,0.5,-2.61,0.69,0.7,-0.13,-0.11
10.3114,0.76,-1.04,-0.54,0.67,0.72,-0.16,-0.12
10.3745,1.81,-1.49,-0.39,0.66,0.72,-0.17,-0.13
10.3872,2.46,-2.09,0.94,0.63,0.74,-0.2,-0.15
10.4073,3.23,-2.89,0.59,0.61,0.75,-0.21,-0.16
10.4606,3.52,-1.63,-0.57,0.6,0.75,-0.22,-0.16
10.4769,2.25,-2.49,-0.28,0.56,0.76,-0.25,-0.18
10.4969,1.01,-2.87,1.36,0.55,0.77,-0.27,-0.19
10.5664,-0.13,-1.1,3.94,0.53,0.78,-0.28,-0.19
10.5869,3.2,-2.96,10.68,0.48,0.79,-0.31,-0.22
10.6063,3.34,-2.3,10.16,0.47,0.79,-0.32,-0.22
10.6783,3.34,-1.46,8.0,0.47,0.79,-0.32,-0.22
10.6973,-0.37,-0.69,2.33,0.47,0.78,-0.33,-0.24
10.717,-1.01,-0.99,1.64,0.48,0.78,-0.33,-0.24
10.7686,-0.14,0.05,0.68,0.48,0.78,-0.33,-0.24
10.7883,1.93,-0.25,-0.05,0.49,0.77,-0.33,-0.24
10.8071,1.89,-0.49,0.35,0.49,0.77,-0.33,-0.25
10.8464,1.12,0.16,1.41,0.49,0.77,-0.33,-0.24
10.8671,2.31,-0.83,3.0,0.5,0.77,-0.32,-0.24
10.8873,4.86,-1.05,3.5,0.51,0.76,-0.32,-0.24
10.9071,5.02,-0.33,3.47,0.52,0.76,-0.31,-0.24
10.9686,4.39,-0.65,4.04,0.53,0.76,-0.3,-0.24
10.9905,4.63,-2.12,2.71,0.58,0.74,-0.26,-0.23
11.0072,2.98,-1.5,2.29,0.6,0.73,-0.24,-0.23
11.0275,2.36,-0.24,2.02,0.62,0.72,-0.22,-0.23
11.0726,2.87,-0.38,0.79,0.64,0.7,-0.2,-0.23
11.087,2.14,-1.63,-0.77,0.68,0.68,-0.15,-0.22
11.1069,-1.06,-1.39,0.2,0.71,0.66,-0.13,-0.22
11.1306,-1.2,-1.33,0.21,0.72,0.65,-0.11,-0.21
11.1523,0.58,-2.61,-0.83,0.74,0.63,-0.09,-0.21
11.1669,1.28,-2.52,-0.49,0.75,0.62,-0.06,-0.21
11.1872,1.45,-2.11,-1.06,0.77,0.61,-0.04,-0.2
11.2664,-0.36,-1.27,-0.99,0.78,0.59,-0.02,-0.19
11.2868,-2.8,-1.46,-1.35,0.82,0.54,0.02,-0.18
11.3071,-3.96,-0.91,-1.86,0.83,0.53,0.02,-0.18
11.3786,-4.15,-0.81,-1.99,0.83,0.53,0.02,-0.17
11.3979,-4.19,-2.09,-3.68,0.84,0.53,0.02,-0.15
11.4172,-3.6,-1.14,-4.23,0.83,0.53,0.02,-0.15
11.4748,-2.82,-0.29,-4.45,0.83,0.54,0.01,-0.14
11.4921,-2.06,-1.99,-4.68,0.82,0.56,0.01,-0.13
11.5083,-2.17,-0.88,-4.82,0.81,0.58,0.01,-0.13
11.5269,-0.07,0.98,-5.06,0.8,0.59,0.01,-0.13
11.5475,-0.68,1.23,-4.34,0.79,0.6,0.0,-0.13
11.6004,-2.5,-0.48,-3.46,0.78,0.61,-0.0,-0.12
11.6177,0.84,1.79,-3.61,0.76,0.64,-0.02,-0.11
11.64,0.27,0.79,-3.32,0.75,0.65,-0.03,-0.11
11.7067,-0.05,-1.38,-3.7,0.74,0.66,-0.03,-0.11
11.7279,3.93,-1.21,-3.84,0.71,0.7,-0.04,-0.1
11.7469,3.0,-0.1,-3.45,0.7,0.7,-0.05,-0.1
11.7698,2.12,0.82,-3.5,0.7,0.71,-0.05,-0.1
11.8364,2.55,0.33,-3.74,0.69,0.71,-0.05,-0.09
11.8483,2.78,-0.79,-4.57,0.69,0.72,-0.06,-0.09
11.8684,1.62,-1.84,-4.36,0.69,0.71,-0.07,-0.09
11.9337,1.89,-0.99,-4.57,0.69,0.71,-0.07,-0.08
11.9584,-0.99,-0.02,-3.96,0.7,0.7,-0.09,-0.08
12.0257,-0.62,-0.64,-3.51,0.7,0.71,-0.09,-0.08
12.0383,2.42,0.21,-3.73,0.68,0.71,-0.12,-0.1
12.0579,0.25,-1.12,-3.26,0.67,0.72,-0.14,-0.1
12.1155,-0.54,-1.88,-4.2,0.66,0.72,-0.16,-0.11
12.1277,2.7,1.1,-3.47,0.62,0.74,-0.21,-0.14
12.1477,1.47,-3.25,1.55,0.6,0.75,-0.24,-0.16
12.2193,0.23,-7.59,4.61,0.57,0.76,-0.26,-0.17
12.2382,5.31,-3.5,11.93,0.5,0.78,-0.31,-0.22
12.2601,2.2,-6.84,10.77,0.49,0.78,-0.33,-0.23
12.2835,2.14,-5.33,9.79,0.48,0.78,-0.33,-0.23
12.2978,2.96,-0.73,6.14,0.48,0.78,-0.33,-0.24
12.3177,1.27,-0.05,4.89,0.48,0.77,-0.33,-0.25
12.3853,-0.13,-2.3,3.48,0.48,0.77,-0.33,-0.26
12.3977,0.93,-1.25,0.17,0.49,0.76,-0.34,-0.27
12.4183,0.77,-1.64,0.62,0.49,0.75,-0.34,-0.28
12.4536,1.43,-0.93,0.21,0.49,0.75,-0.34,-0.28
12.468,0.24,-0.12,0.73,0.5,0.75,-0.34,-0.27
12.4878,-0.03,-1.14,0.84,0.5,0.75,-0.34,-0.27
12.508,0.25,-1.44,1.08,0.5,0.75,-0.34,-0.27
12.5283,1.54,-1.12,2.54,0.51,0.75,-0.34,-0.27
12.6074,2.7,-0.57,2.68,0.51,0.75,-0.33,-0.27
12.6277,6.34,-1.57,3.96,0.55,0.74,-0.31,-0.25
12.6483,6.0,-1.63,2.98,0.57,0.73,-0.3,-0.25
12.7034,3.32,-1.26,2.99,0.59,0.72,-0.28,-0.24
12.7177,2.61,-1.28,1.79,0.64,0.69,-0.26,-0.23
12.7377,2.37,-1.54,0.97,0.66,0.67,-0.24,-0.23
12.8073,2.46,-2.25,0.06,0.69,0.65,-0.23,-0.22
12.8279,-1.73,-0.44,-0.03,0.76,0.59,-0.15,-0.21
12.8544,-0.76,-1.16,-0.14,0.78,0.58,-0.14,-0.21
12.9144,-0.71,-1.77,-1.06,0.8,0.55,-0.11,-0.19
12.9346,-4.15,-1.33,-2.09,0.83,0.53,-0.07,-0.18
12.9579,-3.36,-0.93,-2.72,0.83,0.52,-0.05,-0.18
13.0255,-2.34,-0.66,-3.17,0.84,0.52,-0.04,-0.17
13.0381,-3.09,-2.86,-4.41,0.84,0.52,-0.01,-0.15
13.0577,-2.44,-0.22,-3.85,0.84,0.52,-0.0,-0.15
13.1255,-1.5,0.25,-3.92,0.84,0.53,0.0,-0.14
13.1387,-1.81,-0.48,-4.43,0.82,0.55,0.01,-0.12
13.1576,0.29,0.03,-4.29,0.82,0.56,0.01,-0.12
13.2153,0.13,-0.62,-4.54,0.81,0.57,0.01,-0.12
13.2421,1.45,-0.49,-5.43,0.78,0.61,0.0,-0.11
13.3224,1.47,-0.15,-4.78,0.77,0.62,-0.0,-0.11
13.3391,1.54,-1.26,-5.06,0.73,0.67,-0.02,-0.1
13.3618,2.7,0.69,-4.8,0.72,0.68,-0.02,-0.09
13.4094,2.45,1.68,-4.18,0.72,0.69,-0.02,-0.09
13.4288,2.61,-0.2,-3.38,0.71,0.7,-0.04,-0.08
13.4487,3.41,-0.77,-3.01,0.71,0.7,-0.05,-0.08
13.5204,2.45,-0.86,-2.45,0.71,0.7,-0.05,-0.08
13.539,0.15,-0.24,-1.67,0.7,0.7,-0.07,-0.08
13.559,-0.39,-0.62,-1.4,0.7,0.7,-0.07,-0.08
13.6329,0.2,0.32,-1.24,0.7,0.71,-0.07,-0.08
13.6544,-0.21,-0.18,-0.65,0.69,0.72,-0.1,-0.08
13.6683,0.56,-0.74,-0.68,0.68,0.72,-0.11,-0.09
13.6895,0.92,-0.48,-0.54,0.67,0.72,-0.12,-0.09
13.7466,0.86,-0.31,-0.75,0.67,0.73,-0.13,-0.09
13.759,0.91,-0.89,-0.55,0.65,0.73,-0.16,-0.1
13.779,0.17,-0.35,-0.37,0.64,0.74,-0.17,-0.11
13.8286,0.93,0.27,-1.48,0.64,0.74,-0.18,-0.11
13.8492,3.09,-0.16,-2.84,0.61,0.75,-0.21,-0.13
13.8692,0.76,0.44,-1.56,0.6,0.75,-0.23,-0.14
13.8889,-0.06,-1.49,-0.89,0.59,0.75,-0.25,-0.15
13.9504,0.2,-2.34,-0.03,0.58,0.76,-0.26,-0.16
13.9687,0.71,-1.29,4.52,0.53,0.77,-0.3,-0.19
13.9888,0.98,-2.54,4.57,0.52,0.77,-0.31,-0.19
14.0584,1.62,-4.14,5.03,0.5,0.78,-0.32,-0.2
14.079,1.73,-0.64,4.73,0.47,0.79,-0.34,-0.21
14.0986,0.66,-1.74,4.56,0.46,0.78,-0.35,-0.22
14.1683,0.39,-1.93,4.51,0.46,0.79,-0.35,-0.22
14.1893,0.71,-2.37,4.04,0.46,0.78,-0.36,-0.23
14.209,1.63,-2.27,3.99,0.46,0.78,-0.36,-0.23
14.229,2.49,-0.97,3.29,0.46,0.78,-0.36,-0.23
14.2975,3.25,-1.08,2.91,0.47,0.78,-0.35,-0.23
14.3093,4.43,-0.42,3.26,0.49,0.77,-0.33,-0.23
14.3342,4.69,-0.83,3.28,0.5,0.77,-0.32,-0.23
14.4144,5.51,-1.8,2.61,0.52,0.76,-0.31,-0.23
14.4286,2.88,-1.23,1.84,0.62,0.71,-0.25,-0.23
14.454,2.86,-2.83,0.53,0.64,0.7,-0.23,-0.23
14.4969,3.0,-2.69,-0.48,0.66,0.68,-0.21,-0.23
14.5087,1.84,-1.32,-1.26,0.71,0.64,-0.16,-0.23
14.5337,0.94,-1.25,-1.61,0.74,0.62,-0.13,-0.22
14.5543,0.33,-1.55,-2.3,0.76,0.6,-0.11,-0.22
14.5687,-0.8,-1.39,-2.29,0.78,0.59,-0.09,-0.21
14.5887,-2.28,-0.78,-2.15,0.79,0.57,-0.07,-0.2
14.6627,-3.94,0.24,-2.16,0.81,0.55,-0.05,-0.2
14.6793,-3.91,-0.88,-2.27,0.84,0.51,-0.01,-0.19
14.6997,-5.3,-0.2,-2.12,0.85,0.5,0.0,-0.18
14.7748,-4.79,0.24,-2.38,0.85,0.49,0.0,-0.18
14.7891,-5.1,-3.15,-3.22,0.86,0.49,-0.0,-0.15
14.81,-4.94,-2.0,-3.86,0.85,0.5,0.0,-0.14
14.8794,-3.3,0.27,-4.2,0.85,0.51,0.01,-0.14
14.902,-1.87,-3.14,-3.67,0.82,0.56,-0.02,-0.11
14.9774,0.03,-3.59,-4.7,0.81,0.57,-0.01,-0.11
14.9999,1.6,-0.71,-5.32,0.76,0.64,-0.01,-0.09
15.0764,1.73,-0.96,-4.55,0.75,0.65,-0.01,-0.09
15.0991,3.7,1.64,-4.31,0.71,0.7,0.0,-0.09
15.1744,3.43,2.05,-4.0,0.7,0.71,-0.0,-0.09
15.1902,2.79,-2.08,-4.76,0.69,0.72,-0.02,-0.07
15.2098,1.68,-3.38,-4.18,0.69,0.72,-0.02,-0.07
15.2674,-0.89,-1.46,-2.89,0.69,0.72,-0.01,-0.07
15.2904,0.51,1.75,-2.11,0.68,0.73,-0.01,-0.05
15.3536,1.36,-0.27,-2.37,0.68,0.73,-0.02,-0.05
15.37,1.22,0.98,-1.5,0.67,0.74,-0.04,-0.06
15.3899,1.18,0.05,-1.51,0.67,0.74,-0.05,-0.06
15.4494,0.34,-1.91,-1.42,0.66,0.74,-0.07,-0.06
15.4691,1.4,-0.38,-0.48,0.65,0.75,-0.1,-0.08
15.4902,1.12,-0.69,-0.22,0.64,0.76,-0.12,-0.09
15.5151,0.93,-1.15,-0.2,0.63,0.76,-0.13,-0.09
15.5854,1.44,-1.03,-0.11,0.62,0.77,-0.14,-0.1
15.5996,2.48,-1.55,0.61,0.58,0.78,-0.2,-0.13
15.6217,2.16,-1.39,1.04,0.57,0.78,-0.21,-0.14
15.6914,2.31,-1.11,1.12,0.56,0.78,-0.23,-0.15
15.7103,0.25,-0.5,4.22,0.52,0.79,-0.27,-0.19
15.7321,0.98,-1.95,4.63,0.5,0.79,-0.28,-0.2
15.7583,2.17,-3.14,5.69,0.49,0.79,-0.3,-0.21
15.7796,2.2,-3.41,7.18,0.48,0.79,-0.31,-0.22
15.8001,1.42,-2.25,7.36,0.48,0.79,-0.32,-0.22
15.8203,-0.34,-0.43,6.24,0.48,0.79,-0.32,-0.22
15.8897,-0.45,0.81,5.38,0.48,0.79,-0.31,-0.22
15.91,-0.21,-1.51,1.26,0.49,0.78,-0.31,-0.23
15.93,0.01,-1.33,0.26,0.49,0.78,-0.31,-0.23
15.9874,0.22,-1.23,0.05,0.49,0.78,-0.31,-0.23
15.9997,-0.07,0.12,0.94,0.5,0.78,-0.31,-0.23
16.02,1.3,-0.21,1.32,0.5,0.78,-0.31,-0.23
16.0833,1.86,-0.54,1.7,0.5,0.78,-0.3,-0.23
16.1006,2.49,0.03,3.01,0.52,0.77,-0.29,-0.22
16.1226,3.18,0.13,3.13,0.53,0.77,-0.29,-0.22
16.1874,4.22,-0.4,3.53,0.54,0.76,-0.28,-0.22
16.1998,3.36,-0.66,3.24,0.58,0.74,-0.25,-0.22
16.2206,2.26,-0.92,3.12,0.6,0.73,-0.24,-0.23
16.2655,2.77,-2.52,1.43,0.63,0.71,-0.22,-0.23
16.2796,2.17,-1.25,0.84,0.66,0.69,-0.19,-0.22
16.2996,1.23,-0.43,0.62,0.68,0.67,-0.18,-0.22
16.322,-0.27,-1.03,0.25,0.7,0.65,-0.16,-0.22
16.3401,0.17,-1.75,-0.57,0.72,0.64,-0.15,-0.22
16.4154,1.9,-2.4,-1.16,0.74,0.62,-0.13,-0.22
16.43,-2.64,-1.46,-2.05,0.8,0.56,-0.07,-0.2
16.451,-3.47,-1.07,-2.05,0.81,0.55,-0.06,-0.19
16.5054,-3.32,-0.07,-2.74,0.82,0.54,-0.04,-0.19
16.5207,-3.9,-2.1,-2.92,0.84,0.52,-0.02,-0.17
16.541,-3.39,-1.2,-2.85,0.84,0.51,-0.01,-0.16
16.6004,-3.05,-0.13,-2.63,0.84,0.51,-0.0,-0.15
16.6237,-3.32,-2.62,-3.59,0.84,0.53,0.0,-0.12
16.6403,0.01,-0.11
16.6606,-0.78,1.53,-3.73,0.82,0.55,0.02,-0.11
16.6812,-1.21,1.27,-3.53,0.82,0.56,0.02,-0.11
16.7517,-1.86,-1.34,-4.02,0.81,0.58,0.02,-0.1
16.7707,0.6,-1.78,-4.58,0.77,0.63,0.03,-0.09
16.791,-0.34,-2.88,-4.26,0.76,0.64,0.03,-0.09
16.8599,0.07,0.12,-4.64,0.75,0.65,0.04,-0.09
16.8706,0.89,-1.23,-4.52,0.72,0.68,0.01,-0.09
16.8914,0.95,-1.94,-4.77,0.72,0.69,-0.0,-0.09
16.9667,2.03,-1.37,-4.44,0.71,0.7,-0.01,-0.09
16.981,2.58,2.14,-4.12,0.69,0.72,-0.03,-0.07
17.001,2.0,0.84,-3.93,0.69,0.72,-0.04,-0.07
17.0714,1.19,-0.98,-4.05,0.69,0.72,-0.05,-0.07
17.0907,-0.4,-0.89,-2.76,0.69,0.72,-0.07,-0.06
17.1106,-0.82,-1.16,-2.29,0.68,0.73,-0.08,-0.06
17.1305,0.77,0.1,-2.66,0.67,0.73,-0.08,-0.06
17.1505,1.51,3.66,-1.86,0.67,0.74,-0.08,-0.06
17.1811,1.5,2.1,-1.05,0.66,0.74,-0.09,-0.06
17.2012,1.61,-1.0,-1.33,0.65,0.75,-0.11,-0.07
17.2724,1.41,-1.14,-0.8,0.64,0.75,-0.12,-0.07
17.2906,2.48,-1.84,-0.42,0.61,0.78,-0.15,-0.1
17.3109,2.19,-1.64,0.0,0.59,0.78,-0.16,-0.1
17.3824,3.05,-1.25,-0.38,0.58,0.79,-0.17,-0.11
17.4012,1.11,-3.27,1.07,0.54,0.8,-0.24,-0.15
17.4209,1.81,-5.22,2.26,0.52,0.8,-0.26,-0.16
17.4903,1.71,-4.84,3.2,0.5,0.8,-0.27,-0.17
17.511,5.09,-1.81,6.26,0.45,0.81,-0.32,-0.19
17.531,2.66,-0.82,6.6,0.45,0.81,-0.32,-0.2
17.6006,1.02,0.12,6.52,0.44,0.81,-0.33,-0.2
17.6228,0.34,1.52,3.04,0.43,0.81,-0.34,-0.22
17.6703,0.51,0.54,2.49,0.43,0.8,-0.34,-0.23
17.6908,0.25,-2.95,1.87,0.43,0.8,-0.34,-0.24
17.7109,0.76,-1.0,2.1,0.44,0.8,-0.34,-0.24
17.7834,1.38,0.32,1.71,0.44,0.8,-0.34,-0.24
17.8006,2.61,-0.45,3.33,0.46,0.79,-0.33,-0.23
17.8206,3.14,-0.29,2.93,0.46,0.79,-0.32,-0.23
17.8406,4.35,-0.46,2.79,0.47,0.79,-0.31,-0.23
17.8613,4.34,-0.6,3.33,0.49,0.78,-0.31,-0.23
17.9403,4.63,-1.3,3.57,0.5,0.78,-0.3,-0.23
17.9619,3.74,-0.83,1.47,0.58,0.74,-0.24,-0.24
17.9839,3.77,-1.1,0.78,0.6,0.73,-0.23,-0.24
18.0019,3.86,-1.46,0.05,0.63,0.71,-0.21,-0.24
18.0745,2.48,-1.98,-0.52,0.66,0.69,-0.19,-0.23
18.0906,-1.08,-0.06,-1.6,0.74,0.63,-0.11,-0.23
18.1109,-1.0,0.83,-1.37,0.76,0.61,-0.1,-0.22
18.137,-1.34,-0.68,-1.23,0.77,0.59,-0.09,-0.21
18.1516,-2.47,-1.48,-1.16,0.79,0.58,-0.07,-0.2
18.2283,-3.06,-0.86,-1.32,0.8,0.57,-0.06,-0.2
18.2436,-1.75,-1.17,-1.01,0.83,0.54,-0.03,-0.17
18.2606,-1.8,-2.74,-2.16,0.83,0.53,-0.03,-0.16
18.3064,-2.47,-2.82,-1.8,0.83,0.53,-0.03,-0.15
18.3217,-3.73,-2.34,-3.16,0.83,0.54,-0.01,-0.14
18.3416,-5.4,-1.15,-3.35,0.83,0.54,-0.0,-0.14
18.3619,-2.4,1.45,-4.33,0.82,0.56,0.01,-0.13
18.3819,-1.36,-0.6,-4.93,0.81,0.57,0.0,-0.13
18.4029,-2.67,-4.57,-5.37,0.81,0.58,0.0,-0.12
18.4218,-3.84,-3.78,-5.39,0.8,0.59,0.01,-0.12
18.4416,-2.32,0.61,-5.64,0.78,0.61,0.03,-0.12
18.5083,-0.04,0.97,-6.32,0.77,0.63,0.03,-0.11
18.5235,0.57,1.36,-6.22,0.72,0.68,0.03,-0.09
18.5415,1.12,1.64,-5.86,0.71,0.7,0.03,-0.09
18.5723,2.8,-0.73,-6.27,0.7,0.71,0.03,-0.09
18.5915,2.98,-0.12,-5.87,0.68,0.72,0.02,-0.09
18.6116,2.71,0.11,-5.64,0.68,0.73,0.01,-0.08
18.6365,2.47,-0.97,-5.55,0.68,0.73,0.01,-0.08
18.6516,2.08,-1.21,-6.48,0.68,0.73,0.0,-0.08
18.6763,1.69,0.6,-6.13,0.68,0.73,-0.0,-0.07
18.6918,1.45,1.46,-6.46,0.68,0.73,-0.01,-0.07
18.7119,0.68,-0.04,-6.13,0.68,0.73,-0.02,-0.08
18.7316,0.28,-1.25,-6.14,0.69,0.72,-0.03,-0.07
18.7516,0.68,-1.57,-5.65,0.69,0.72,-0.04,-0.07
18.7816,-1.39,-1.64,-3.79,0.69,0.72,-0.06,-0.08
18.8021,-0.46,-1.74,-3.52,0.68,0.72,-0.06,-0.08
18.8834,-0.18,0.57,-2.16,0.68,0.73,-0.07,-0.09
18.9023,2.5,-2.09,0.07,0.64,0.75,-0.14,-0.11
18.9218,2.66,-2.04,1.07,0.62,0.76,-0.15,-0.12
18.9914,3.31,-1.51,0.78,0.61,0.76,-0.17,-0.13
19.012,2.97,-2.66,3.12,0.55,0.79,-0.25,-0.16
19.0343,2.05,-1.85,4.18,0.53,0.79,-0.27,-0.16
19.1014,0.7,-2.67,5.84,0.51,0.79,-0.28,-0.17
19.1116,2.69,-1.01,8.88,0.46,0.81,-0.31,-0.18
19.1346,2.48,0.91,8.35,0.46,0.81,-0.31,-0.18
19.1612,2.04,0.17,8.0,0.45,0.82,-0.32,-0.18
19.1831,2.62,-0.06,6.01,0.45,0.82,-0.32,-0.18
19.2016,2.08,0.75,4.68,0.45,0.81,-0.32,-0.18
19.2225,1.95,-0.92,3.57,0.45,0.81,-0.32,-0.19
19.2415,1.69,-3.04,2.2,0.45,0.81,-0.32,-0.19
19.2627,1.98,-1.77,1.43,0.46,0.81,-0.32,-0.19
19.3084,1.8,0.05,0.25,0.46,0.81,-0.32,-0.19
19.3324,-0.18,-0.68,-0.26,0.48,0.8,-0.31,-0.19
19.3994,0.88,0.38,-0.0,0.48,0.8,-0.31,-0.19
19.4115,3.19,0.34,1.89,0.5,0.8,-0.29,-0.19
19.4314,4.15,0.01,2.12,0.51,0.79,-0.28,-0.19
19.4593,5.2,-0.87,2.07,0.52,0.79,-0.28,-0.19
19.4826,5.41,-1.32,2.08,0.54,0.77,-0.26,-0.19
19.5093,4.48,-1.7,2.32,0.56,0.76,-0.25,-0.19
19.5225,5.44,-1.15,1.56,0.58,0.75,-0.24,-0.19
19.5415,3.57,-0.27,1.16,0.61,0.74,-0.23,-0.19
19.5674,2.19,-0.39,0.84,0.63,0.73,-0.21,-0.19
19.5855,2.36,-0.92,0.26,0.65,0.71,-0.19,-0.19
19.6031,2.23,-0.86,0.09,0.67,0.69,-0.17,-0.18
19.6215,0.41,-2.33,-0.35,0.7,0.68,-0.15,-0.18
19.6425,-0.26,-2.46,-0.34,0.72,0.66,-0.13,-0.18
19.6655,-1.46,-1.7,-0.36,0.74,0.65,-0.1,-0.18
19.6825,-2.28,-1.63,-0.55,0.75,0.63,-0.07,-0.17
19.7033,-3.11,-0.74,-0.79,0.77,0.62,-0.04,-0.17
19.7844,-3.16,-0.78,-1.2,0.78,0.6,-0.02,-0.17
19.803,-1.71,-0.99,-1.0,0.82,0.55,0.04,-0.14
19.8264,-2.54,0.65,-0.36,0.83,0.54,0.05,-0.14
19.8864,-1.95,0.07,-0.88,0.83,0.54,0.06,-0.13
19.9025,-2.27,-1.53,-1.13,0.84,0.53,0.07,-0.11
19.9225,-1.46,-0.66,-1.44,0.84,0.53,0.08,-0.11
19.9426,-1.81,-0.98,-1.64,0.84,0.53,0.08,-0.1
19.9626,-3.39,-2.21,-1.9,0.84,0.53,0.08,-0.09
19.9926,-4.26,-2.31,-2.73,0.83,0.54,0.09,-0.08
20.0126,-2.55,-0.27,-2.95,0.83,0.55,0.1,-0.08
20.0393,-2.05,-0.42,-3.71,0.82,0.55,0.1,-0.08
20.052,-3.9,-1.57,-4.0,0.81,0.57,0.11,-0.08
20.0726,-1.95,-0.62,-5.26,0.8,0.58,0.11,-0.07
20.1444,-0.39,0.65,-5.02,0.79,0.59,0.11,-0.07
20.1638,0.49,0.39,-4.43,0.76,0.64,0.1,-0.07
20.1832,-0.02,0.34,-4.27,0.75,0.65,0.09,-0.07
20.2028,-0.8,-0.74,-4.43,0.75,0.66,0.08,-0.07
20.2744,-0.01,-0.43,-4.57,0.74,0.67,0.07,-0.07
20.2855,0.79,-1.75,-3.3,0.71,0.7,0.04,-0.07
20.3032,3.34,0.58,-3.34,0.71,0.7,0.03,-0.07
20.3806,4.74,0.84,-3.09,0.7,0.71,0.02,-0.07
20.3926,0.05,-1.75,-2.34,0.69,0.72,-0.03,-0.07
20.4126,0.97,-2.05,-3.11,0.69,0.72,-0.03,-0.07
20.4393,2.04,-0.46,-3.17,0.69,0.72,-0.04,-0.07
20.4535,0.85,1.48,-2.71,0.69,0.72,-0.04,-0.08
20.4725,-0.3,0.52,-2.62,0.69,0.72,-0.06,-0.08
20.4974,-1.99,-0.97,-1.52,0.69,0.72,-0.07,-0.08
20.5126,-1.21,-1.79,-1.78,0.69,0.72,-0.08,-0.08
20.5326,-0.57,-1.51,-1.8,0.68,0.72,-0.09,-0.08
20.5525,-0.44,-0.45,-1.83,0.68,0.72,-0.09,-0.08
20.5726,0.42,0.86,-2.61,0.67,0.73,-0.1,-0.09
20.6014,0.39,0.61,-2.42,0.67,0.73,-0.12,-0.09
20.6125,-0.12,-1.55,-1.91,0.66,0.73,-0.13,-0.09
20.6388,-0.39,-1.82,-1.94,0.65,0.74,-0.14,-0.1
20.7036,-0.39,-0.93,-1.78,0.63,0.75,-0.15,-0.11
20.7227,2.98,-4.76,-2.42,0.58,0.78,-0.21,-0.13
20.7428,2.87,-5.54,-2.67,0.56,0.78,-0.22,-0.14
20.8136,0.96,1.19,-1.68,0.55,0.79,-0.24,-0.14
20.8384,1.41,-6.66,2.52,0.47,0.8,-0.33,-0.17
20.9006,1.66,-3.62,4.47,0.44,0.81,-0.34,-0.17
20.9266,7.84,-2.04,8.31,0.38,0.83,-0.38,-0.17
20.9553,7.25,-1.9,8.78,0.37,0.83,-0.39,-0.17
20.9728,6.41,-0.98,8.38,0.37,0.83,-0.39,-0.18
20.9927,5.4,-2.72,7.28,0.37,0.82,-0.38,-0.19
21.0643,4.65,-2.38,6.4,0.37,0.82,-0.38,-0.19
21.0834,4.11,-1.88,2.21,0.41,0.82,-0.35,-0.2
21.1025,3.68,-1.37,1.59,0.43,0.81,-0.34,-0.2
21.1237,3.46,-1.43,1.02,0.44,0.81,-0.33,-0.2
21.1424,3.59,-0.82,0.61,0.46,0.81,-0.31,-0.2
21.1638,4.27,-0.69,0.2,0.48,0.8,-0.3,-0.2
21.2353,4.16,-1.5,0.26,0.5,0.79,-0.28,-0.2
21.2583,4.1,-1.82,-0.46,0.58,0.76,-0.22,-0.18
21.3376,2.18,-0.83,-0.16,0.61,0.75,-0.2,-0.18
21.3531,0.15,-1.02,-1.09,0.7,0.69,-0.1,-0.17
21.3728,-1.72,0.02,-0.72,0.72,0.67,-0.08,-0.17
21.4484,-2.73,-0.58,-1.08,0.74,0.65,-0.05,-0.16
21.4635,-0.52,-0.21,-1.39,0.79,0.6,0.0,-0.14
21.4835,-2.7,-0.41,-1.29,0.8,0.59,0.02,-0.14
21.5083,-4.4,-1.65,-1.75,0.81,0.57,0.02,-0.13
21.5236,-5.09,-2.16,-1.24,0.81,0.57,0.04,-0.13
21.5455,-3.78,-1.16,-2.2,0.82,0.56,0.05,-0.12
21.5636,-2.11,0.23,-2.65,0.82,0.56,0.06,-0.11
21.5835,-1.75,-0.96,-2.52,0.82,0.55,0.06,-0.1
21.6035,-2.31,-2.44,-2.05,0.83,0.55,0.07,-0.1
21.6226,-2.35,-2.5,-2.04,0.83,0.55,0.08,-0.09
21.6473,-0.45,-0.96,-2.61,0.82,0.55,0.09,-0.08
21.6639,-0.62,-0.54,-2.66,0.82,0.56,0.1,-0.07
21.6838,-0.63,-1.53,-3.11,0.82,0.56,0.11,-0.07
21.7568,-0.69,-1.03,-2.8,0.81,0.57,0.12,-0.06
21.7726,-2.01,-0.6,-2.89,0.79,0.59,0.14,-0.05
21.794,-0.09,0.16,-3.49,0.79,0.6,0.14,-0.05
21.8633,0.05,0.27,-3.44,0.78,0.61,0.14,-0.05
21.8865,0.12,-0.53,-4.57,0.76,0.64,0.13,-0.05
21.9213,0.24,-1.53,-5.17,0.75,0.64,0.12,-0.06
21.9437,-1.52,0.53,-5.51,0.74,0.66,0.1,-0.06
21.9639,-0.11,-0.65,-5.83,0.74,0.67,0.08,-0.06
21.9839,1.28,-3.66,-6.17,0.73,0.68,0.06,-0.06
22.0534,1.08,-3.55,-5.86,0.72,0.69,0.05,-0.06
22.0735,1.64,-1.65,-5.35,0.71,0.7,0.0,-0.06
22.0934,1.5,-2.46,-5.26,0.7,0.71,-0.01,-0.06
22.1204,1.23,-0.79,-4.75,0.7,0.71,-0.03,-0.06
22.1364,1.42,0.04,-3.93,0.7,0.71,-0.04,-0.06
22.1535,1.09,-0.33,-3.44,0.69,0.72,-0.06,-0.06
22.1736,0.98,-1.24,-3.09,0.69,0.72,-0.07,-0.07
22.2043,0.34,-1.0,-2.41,0.68,0.73,-0.09,-0.07
22.2238,1.34,-1.22,-1.91,0.66,0.74,-0.11,-0.08
22.2454,2.92,-1.94,-1.55,0.65,0.75,-0.13,-0.09
22.2637,3.09,-2.02,-1.04,0.63,0.75,-0.15,-0.1
22.2864,2.66,-1.37,-0.19,0.62,0.76,-0.17,-0.11
22.3034,1.96,-1.9,0.28,0.6,0.77,-0.19,-0.12
22.3255,3.95,-2.68,-1.81,0.58,0.78,-0.21,-0.13
22.3436,4.86,-2.42,-1.7,0.56,0.79,-0.23,-0.14
22.3763,4.87,-2.24,-0.16,0.54,0.79,-0.25,-0.15
22.3971,1.37,-7.2,2.15,0.51,0.79,-0.29,-0.17
22.4139,1.59,-7.85,3.11,0.49,0.8,-0.31,-0.17
22.434,3.43,-2.58,4.06,0.46,0.81,-0.32,-0.18
22.5115,4.79,0.23,4.61,0.44,0.82,-0.32,-0.18
22.5249,3.91,-0.97,6.73,0.4,0.82,-0.36,-0.2
22.5437,3.07,0.14,7.42,0.39,0.82,-0.37,-0.21
22.6015,2.84,-0.8,7.28,0.39,0.82,-0.37,-0.21
22.6239,2.14,-0.78,4.93,0.38,0.81,-0.38,-0.23
22.6894,1.84,-1.3,4.2,0.39,0.81,-0.38,-0.23
22.7136,2.01,-1.58,1.75,0.41,0.8,-0.37,-0.23
22.7443,2.95,-1.14,1.19,0.42,0.8,-0.37,-0.23
22.7664,3.86,-0.27,1.23,0.43,0.8,-0.35,-0.23
22.7883,5.37,-0.03,1.26,0.45,0.79,-0.34,-0.23
22.8034,4.79,0.1,1.45,0.46,0.79,-0.34,-0.23
22.8244,3.91,-0.45,1.44,0.48,0.78,-0.33,-0.23
22.8933,3.47,-1.18,1.2,0.49,0.78,-0.32,-0.23
22.9134,1.95,-1.43,0.62,0.56,0.75,-0.27,-0.23
22.9334,0.55,-1.3,1.29,0.58,0.74,-0.26,-0.23
22.9596,0.63,-1.14,0.66,0.6,0.72,-0.24,-0.23
22.9748,1.46,-1.32,-0.5,0.63,0.71,-0.22,-0.23
23.0538,0.64,-1.04,-0.3,0.65,0.7,-0.21,-0.23
23.0645,-2.96,-1.24,-1.6,0.72,0.65,-0.16,-0.21
23.0844,-1.19,-0.28,-1.82,0.73,0.63,-0.15,-0.21
23.1036,-1.04,-1.21,-1.13,0.75,0.62,-0.14,-0.21
23.1254,-1.57,-1.75,-0.41,0.76,0.61,-0.12,-0.2
23.1557,-1.48,-0.68,-1.05,0.77,0.6,-0.11,-0.2
23.1747,0.27,1.02,-1.77,0.78,0.59,-0.09,-0.2
23.195,-2.17,0.25,-0.54,0.79,0.58,-0.09,-0.19
23.2667,-2.65,-1.02,-0.58,0.79,0.58,-0.08,-0.19
23.2849,-1.08,-0.75,-1.41,0.8,0.57,-0.06,-0.17
23.3051,-1.46,-2.26,-1.56,0.81,0.56,-0.05,-0.17
23.3787,-1.14,-1.37,-2.13,0.81,0.56,-0.04,-0.17
23.3948,-2.34,-0.39,-3.42,0.8,0.57,-0.01,-0.15
23.4149,-2.52,-0.08,-3.65,0.8,0.58,-0.01,-0.15
23.4347,-1.16,0.7,-3.89,0.8,0.59,-0.0,-0.15
23.4551,-0.77,-0.64,-4.45,0.79,0.59,-0.0,-0.15
23.5364,-1.74,-1.42,-4.46,0.79,0.6,0.0,-0.14
23.5549,0.41,-1.76,-5.91,0.77,0.63,-0.0,-0.14
23.5745,0.82,0.0,-6.61,0.76,0.63,-0.0,-0.13
23.6044,1.75,0.07,-6.36,0.76,0.64,-0.01,-0.13
23.6245,1.83,-1.83,-6.97,0.75,0.65,-0.02,-0.13
23.6446,-0.12,-0.89,-5.82,0.75,0.65,-0.02,-0.13
23.6774,-0.06,0.48,-5.71,0.74,0.66,-0.02,-0.12
23.6946,-0.68,-0.44,-4.85,0.74,0.66,-0.03,-0.12
23.7198,-1.16,-0.74,-4.7,0.74,0.67,-0.04,-0.12
23.7907,-2.21,-0.14,-3.91,0.73,0.67,-0.04,-0.12
23.8049,0.01,-0.78,-2.59,0.7,0.7,-0.08,-0.12
23.8247,1.12,-1.57,-2.32,0.69,0.71,-0.09,-0.12
23.8448,1.74,-1.35,-2.17,0.68,0.72,-0.11,-0.12
23.8681,2.62,-1.44,-1.52,0.66,0.73,-0.12,-0.12
23.9486,3.03,-0.68,-1.59,0.65,0.74,-0.13,-0.12
23.9651,4.05,-0.67,0.24,0.58,0.78,-0.18,-0.14
23.9846,4.83,0.68,0.78,0.57,0.79,-0.19,-0.15
24.0523,4.23,0.33,1.36,0.55,0.79,-0.2,-0.15
24.0645,3.53,-2.96,1.96,0.5,0.81,-0.25,-0.17
24.0855,3.27,-1.64,1.67,0.49,0.81,-0.26,-0.18
24.1283,3.31,-2.74,2.01,0.48,0.81,-0.27,-0.19
24.1443,0.16,-1.64,1.69,0.45,0.82,-0.3,-0.19
24.1646,-1.25,-1.06,2.21,0.44,0.82,-0.31,-0.19
24.1847,0.29,-1.93,2.27,0.42,0.83,-0.32,-0.19
24.2546,2.04,-1.18,2.2,0.41,0.83,-0.32,-0.19
24.2748,4.95,-1.78,5.27,0.37,0.85,-0.34,-0.19
24.2977,5.82,0.87,5.73,0.36,0.85,-0.34,-0.19
24.3464,4.35,1.69,6.17,0.36,0.85,-0.34,-0.19
24.3644,4.27,-1.49,4.98,0.36,0.85,-0.34,-0.2
24.3853,3.66,-1.59,4.4,0.37,0.84,-0.34,-0.2
24.4156,3.43,-1.45,3.39,0.37,0.84,-0.33,-0.2
24.4356,4.19,-1.79,2.28,0.39,0.84,-0.33,-0.21
24.4554,4.98,-1.49,0.93,0.4,0.83,-0.32,-0.21
24.4743,3.71,-0.43,0.52,0.42,0.83,-0.31,-0.21
24.5063,2.62,-0.3,0.84,0.43,0.82,-0.3,-0.21
24.5257,3.82,0.62,1.39,0.46,0.82,-0.28,-0.21
24.5462,3.37,0.88,1.22,0.48,0.81,-0.27,-0.21
24.5656,2.97,-0.38,1.28,0.49,0.8,-0.26,-0.22
24.5889,3.52,-1.1,1.37,0.51,0.79,-0.25,-0.22
24.6058,2.12,-1.52,1.63,0.54,0.78,-0.24,-0.22
24.6254,1.71,-1.32,1.29,0.56,0.76,-0.23,-0.23
24.6461,0.97,-1.32,0.78,0.58,0.75,-0.22,-0.23
24.7233,1.34,-1.26,0.59,0.61,0.73,-0.2,-0.23
24.7353,1.1,-1.17,-1.22,0.69,0.67,-0.15,-0.23
24.7561,1.41,-0.98,-1.65,0.71,0.65,-0.13,-0.23
24.8175,0.13,-1.06,-1.16,0.73,0.63,-0.12,-0.23
24.8355,1.93,-1.29,-1.97,0.78,0.58,-0.07,-0.22
24.8574,1.31,-1.09,-2.03,0.8,0.56,-0.06,-0.21
24.8904,-0.62,-0.87,-2.14,0.81,0.54,-0.05,-0.2
24.9054,-3.5,-1.99,-2.7,0.83,0.53,-0.04,-0.19
24.9254,-3.58,-1.8,-3.03,0.83,0.52,-0.03,-0.19
24.9603,-3.94,-1.16,-2.96,0.84,0.51,-0.02,-0.18
24.9744,-4.94,-1.21,-2.96,0.84,0.51,-0.01,-0.16
24.9953,-5.29,-1.64,-2.86,0.85,0.51,-0.0,-0.15
25.0244,-4.61,-1.71,-3.47,0.84,0.52,0.0,-0.14
25.0458,-4.93,-2.62,-4.04,0.84,0.53,0.01,-0.13
25.0655,-5.41,-1.62,-4.54,0.83,0.54,0.02,-0.13
25.0857,-2.85,-0.2,-5.18,0.82,0.56,0.03,-0.12
25.1085,-0.93,-1.08,-5.52,0.81,0.57,0.02,-0.11
25.1259,-1.89,-3.3,-6.08,0.8,0.59,0.02,-0.1
25.1926,-2.82,-2.71,-5.75,0.79,0.6,0.02,-0.1
25.216,1.25,0.61,-6.13,0.75,0.65,0.02,-0.09
25.2916,1.02,-0.17,-6.45,0.74,0.67,0.01,-0.08
25.3156,1.47,0.13,-5.63,0.71,0.7,-0.02,-0.08
25.3464,2.61,1.45,-5.86,0.7,0.71,-0.02,-0.08
25.3657,2.61,0.72,-5.66,0.7,0.71,-0.04,-0.08
25.3858,0.88,-0.62,-4.66,0.7,0.71,-0.05,-0.08
25.4594,1.57,-2.13,-4.38,0.69,0.72,-0.06,-0.08
25.4757,0.86,0.43,-2.39,0.67,0.73,-0.07,-0.09
25.4956,0.34,0.23,-1.83,0.66,0.74,-0.08,-0.09
25.5655,2.48,-0.66,-2.16,0.65,0.75,-0.09,-0.1
25.5874,2.72,-2.23,-0.88,0.61,0.77,-0.14,-0.12
25.6059,2.57,-2.49,-0.59,0.59,0.78,-0.16,-0.13
25.6254,2.52,-1.3,0.11,0.58,0.78,-0.17,-0.14
25.6473,2.55,-0.47,0.77,0.56,0.79,-0.19,-0.15
25.6674,2.87,-4.87,0.24,0.54,0.8,-0.22,-0.16
25.6853,2.92,-5.91,0.36,0.52,0.8,-0.23,-0.17
25.7143,2.96,-3.74,2.08,0.5,0.81,-0.25,-0.18
25.7411,2.38,-1.05,3.96,0.48,0.82,-0.27,-0.19
25.8184,1.95,-4.03,4.75,0.46,0.82,-0.29,-0.19
25.8359,3.66,0.39,8.46,0.41,0.84,-0.31,-0.19
25.8558,3.22,-0.83,7.92,0.4,0.83,-0.32,-0.19
25.9263,2.78,-0.69,7.53,0.4,0.83,-0.32,-0.19
25.9468,0.64,-2.28,2.33,0.42,0.83,-0.32,-0.21
25.9657,0.06,-0.54,0.39,0.42,0.82,-0.32,-0.21
26.0354,-0.1,-1.25,-0.53,0.43,0.82,-0.32,-0.21
26.0568,1.41,4.0,0.18,0.44,0.82,-0.31,-0.2
26.0753,3.82,2.09,0.6,0.44,0.82,-0.3,-0.2
26.0963,3.71,0.53,1.45,0.45,0.82,-0.3,-0.2
26.1243,3.64,-0.4,2.32,0.46,0.81,-0.3,-0.2
26.1469,4.34,-0.04,2.86,0.47,0.81,-0.28,-0.2
26.2049,5.87,-0.69,2.76,0.48,0.81,-0.27,-0.2
26.2166,4.41,-1.26,3.54,0.52,0.79,-0.24,-0.21
26.2366,3.42,-2.28,2.68,0.54,0.78,-0.23,-0.21
26.2557,3.32,-3.29,1.93,0.57,0.77,-0.21,-0.22
26.2768,1.81,-2.21,1.89,0.59,0.75,-0.19,-0.22
26.3467,1.62,-1.7,1.53,0.62,0.74,-0.17,-0.22
26.367,-0.91,-1.45,-0.5,0.7,0.67,-0.09,-0.21
26.3887,-2.0,-1.57,-0.64,0.72,0.66,-0.08,-0.2
26.4637,-1.27,-1.78,-1.19,0.74,0.64,-0.06,-0.2
26.4866,-2.73,-1.09,-1.47,0.79,0.59,0.01,-0.17
26.5194,-3.88,-0.77,-1.66,0.8,0.58,0.02,-0.17
26.5363,-3.61,0.46,-1.96,0.81,0.57,0.02,-0.16
26.5563,-4.16,-0.99,-1.93,0.81,0.56,0.02,-0.15
26.5994,-4.02,-2.76,-2.66,0.81,0.56,0.02,-0.13
26.6163,-2.93,-1.14,-3.46,0.81,0.57,0.03,-0.12
26.6353,-3.89,-1.26,-3.66,0.81,0.58,0.03,-0.11
26.6734,-2.87,-1.43,-4.16,0.8,0.58,0.03,-0.11
26.6965,-1.59,-1.95,-4.66,0.79,0.6,0.03,-0.1
26.7433,-1.93,-2.36,-5.0,0.79,0.61,0.03,-0.09
26.7564,-0.34,0.13,-5.77,0.77,0.63,0.03,-0.09
26.7776,0.02,0.31,-6.24,0.76,0.64,0.02,-0.09
26.8465,-0.15,0.3,-5.41,0.75,0.65,0.01,-0.09
26.8668,1.1,-1.22,-5.44,0.72,0.69,-0.01,-0.09
26.8867,3.4,-0.4,-5.65,0.71,0.7,-0.01,-0.09
26.9583,3.35,0.45,-5.53,0.71,0.7,-0.02,-0.09
26.9763,2.59,-0.77,-5.72,0.69,0.72,-0.05,-0.08
26.9968,2.21,-1.18,-5.86,0.69,0.72,-0.05,-0.08
27.0217,1.07,-0.85,-5.32,0.69,0.71,-0.06,-0.08
27.0363,0.52,-0.89,-4.93,0.69,0.72,-0.06,-0.08
27.0564,-0.16,-0.41,-4.43,0.69,0.72,-0.06,-0.08
27.0913,1.57,0.72,-3.84,0.68,0.72,-0.07,-0.08
27.1066,1.62,-0.61,-2.73,0.68,0.73,-0.08,-0.09
27.1266,0.76,-0.96,-1.8,0.67,0.73,-0.09,-0.1
27.1537,2.08,0.71,-1.03,0.66,0.74,-0.09,-0.1
27.1767,3.12,0.67,-0.45,0.65,0.75,-0.11,-0.11
27.1963,2.36,-0.44,0.21,0.63,0.75,-0.13,-0.11
27.2166,1.25,-2.19,0.74,0.62,0.76,-0.15,-0.12
27.2389,1.87,-1.97,0.51,0.61,0.77,-0.16,-0.13
27.2569,3.03,-0.77,-0.37,0.59,0.78,-0.18,-0.14
27.2767,3.87,-1.55,-1.91,0.57,0.78,-0.19,-0.16
27.2965,5.45,-4.5,-2.68,0.55,0.79,-0.21,-0.17
27.3688,3.43,-3.48,-1.13,0.53,0.79,-0.23,-0.18
27.3877,2.36,-3.65,9.08,0.46,0.81,-0.29,-0.22
27.4166,4.18,-3.09,10.96,0.44,0.82,-0.3,-0.22
27.4827,4.33,-2.82,11.14,0.43,0.82,-0.31,-0.23
27.5073,2.58,1.7,5.3,0.42,0.82,-0.31,-0.24
27.5784,0.09,-0.74,3.16,0.43,0.81,-0.31,-0.25
27.5963,1.2,-0.75,-0.92,0.44,0.8,-0.31,-0.26
27.6163,0.24,-0.86,-0.59,0.45,0.8,-0.31,-0.26
27.6363,-0.89,-0.04,-0.24,0.45,0.8,-0.31,-0.26
27.6573,-0.35,-0.29,-0.63,0.45,0.8,-0.31,-0.26
27.6953,0.09,0.13,-0.08,0.46,0.8,-0.3,-0.26
27.7063,0.84,-0.25,1.6,0.46,0.79,-0.3,-0.26
27.7274,1.62,-0.11,2.13,0.47,0.79,-0.3,-0.25
27.783,3.26,-0.36,2.76,0.47,0.79,-0.3,-0.25
27.8077,4.92,-1.62,3.7,0.5,0.78,-0.28,-0.24
27.8272,4.86,-1.62,3.78,0.52,0.77,-0.27,-0.24
27.8472,5.68,-1.54,3.03,0.53,0.77,-0.26,-0.24
27.8702,4.88,-1.61,2.59,0.55,0.76,-0.25,-0.24
27.8872,4.53,-1.9,1.69,0.58,0.74,-0.24,-0.24
27.9304,4.09,-1.56,0.49,0.6,0.73,-0.22,-0.23
27.9483,2.5,-0.93,0.61,0.65,0.7,-0.18,-0.23
27.9663,2.19,-1.25,-0.4,0.68,0.68,-0.17,-0.22
28.0084,1.13,-1.26,-0.98,0.7,0.66,-0.14,-0.22
28.0293,-0.8,-0.28,-1.35,0.75,0.63,-0.1,-0.2
28.0473,-2.59,-1.11,-1.28,0.77,0.61,-0.09,-0.2
28.0674,-3.06,-1.43,-1.3,0.78,0.59,-0.07,-0.19
28.1024,-1.31,-1.29,-1.49,0.79,0.58,-0.05,-0.18
28.1163,-1.1,-0.3,-1.77,0.81,0.56,-0.03,-0.17
28.1373,-2.46,-0.06,-1.85,0.82,0.54,-0.02,-0.16
28.1804,-4.2,-0.84,-1.66,0.83,0.54,-0.01,-0.16
28.1973,-4.42,-0.51,-2.36,0.84,0.53,0.0,-0.14
28.2173,-3.55,-0.14,-3.22,0.84,0.53,0.01,-0.14
28.2463,-4.07,-0.64,-3.21,0.84,0.53,0.0,-0.13
28.2675,-4.31,-2.99,-4.12,0.83,0.54,0.01,-0.12
28.2893,-2.16,-0.59,-4.93,0.83,0.55,0.01,-0.12
28.3073,-1.81,0.12,-4.93,0.82,0.56,0.01,-0.12
28.3275,-0.85,0.98,-5.21,0.81,0.57,0.01,-0.12
28.3475,-0.86,-1.11,-5.61,0.81,0.58,-0.0,-0.11
28.3924,-1.2,-2.2,-5.69,0.8,0.59,-0.01,-0.11
28.4076,0.45,-0.06,-5.34,0.78,0.62,-0.01,-0.11
28.4275,1.48,0.92,-5.7,0.77,0.63,-0.01,-0.1
28.4763,1.34,1.12,-5.84,0.76,0.64,-0.02,-0.1
28.4974,1.84,-1.19,-5.46,0.75,0.66,-0.04,-0.1
28.5464,2.07,-0.78,-4.88,0.74,0.67,-0.04,-0.1
28.5672,1.64,0.15,-4.37,0.72,0.68,-0.05,-0.09
28.5892,3.89,1.22,-5.27,0.72,0.69,-0.06,-0.09
28.6073,3.54,1.35,-5.2,0.71,0.69,-0.06,-0.09
28.6585,2.74,0.92,-5.12,0.71,0.69,-0.07,-0.09
28.6773,0.52,-0.5,-4.32,0.71,0.69,-0.08,-0.09
28.6972,0.47,1.0,-3.88,0.7,0.7,-0.09,-0.1
28.7404,0.78,1.35,-3.65,0.7,0.7,-0.1,-0.1
28.7573,2.39,-0.14,-2.78,0.69,0.71,-0.12,-0.1
28.7772,-0.05,-0.96,-1.33,0.68,0.71,-0.13,-0.11
28.8263,0.35,-3.18,-1.59,0.67,0.72,-0.15,-0.12
28.8472,1.77,-1.02,0.28,0.64,0.74,-0.16,-0.15
28.8676,2.59,-1.12,-0.25,0.62,0.75,-0.18,-0.16
28.8876,3.39,-1.91,-0.0,0.6,0.75,-0.19,-0.17
28.9223,3.39,-2.68,0.31,0.59,0.76,-0.21,-0.18
28.9377,2.83,-3.62,0.86,0.56,0.77,-0.24,-0.19
28.9576,2.52,-3.45,2.7,0.54,0.78,-0.26,-0.2
29.0286,0.99,-1.98,2.83,0.52,0.78,-0.27,-0.21
29.0477,1.99,-3.93,9.61,0.47,0.79,-0.32,-0.22
29.0672,1.15,-0.62,9.9,0.46,0.8,-0.33,-0.22
29.1063,2.22,2.05,9.52,0.45,0.8,-0.33,-0.23
29.1272,6.75,-3.74,5.93,0.45,0.79,-0.34,-0.24
29.1477,3.77,-1.16,4.59,0.45,0.79,-0.34,-0.24
29.1685,1.3,2.07,1.76,0.46,0.78,-0.35,-0.24
29.2353,1.47,-1.98,-0.12,0.46,0.77,-0.35,-0.25
29.2483,-2.32,1.75,-1.47,0.48,0.77,-0.34,-0.25
29.2673,-1.59,1.0,-0.89,0.48,0.76,-0.34,-0.25
29.2885,-0.12,-0.77,-0.17,0.49,0.76,-0.34,-0.25
29.3418,0.7,-0.77,0.81,0.49,0.77,-0.33,-0.25
29.3585,3.37,1.72,3.08,0.49,0.77,-0.32,-0.24
29.3775,4.91,-0.79,3.67,0.5,0.77,-0.32,-0.24
29.4463,5.2,-2.46,3.64,0.51,0.77,-0.31,-0.24
29.4624,3.5,-0.76,3.33,0.55,0.75,-0.27,-0.24
29.4782,2.66,-2.47,2.69,0.57,0.74,-0.26,-0.24
29.5224,2.55,-3.29,2.0,0.59,0.73,-0.25,-0.24
29.5403,1.76,-0.91,1.32,0.64,0.71,-0.21,-0.23
29.5572,0.56,-1.37,0.43,0.66,0.69,-0.19,-0.22
29.6307,-0.91,-1.27,-0.32,0.68,0.68,-0.17,-0.22
29.6502,0.5,0.21,-0.8,0.74,0.64,-0.1,-0.2
29.6685,0.79,0.28,-0.69,0.75,0.63,-0.09,-0.19
29.6983,-0.64,-1.07,0.21,0.77,0.61,-0.07,-0.18
29.7186,-2.9,-2.84,-0.04,0.78,0.6,-0.06,-0.17
29.7391,-3.39,-2.49,-1.35,0.78,0.59,-0.04,-0.17
29.8204,-3.03,-0.74,-1.29,0.79,0.59,-0.03,-0.17
29.8382,-1.09,-2.01,-2.64,0.8,0.58,0.0,-0.14
29.8582,-1.17,-0.61,-2.61,0.8,0.58,0.01,-0.14
29.8782,-0.28,1.04,-2.91,0.8,0.58,0.01,-0.14
29.8988,-0.37,0.18,-3.16,0.8,0.58,0.01,-0.13
29.9185,-1.86,-2.26,-3.08,0.8,0.58,0.01,-0.12
29.9388,-1.88,-2.51,-3.39,0.8,0.59,0.01,-0.12
29.9614,-0.59,-0.29,-3.44,0.8,0.59,0.02,-0.12
29.979,0.01,0.62,-3.61,0.8,0.59,0.02,-0.12
29.9985,-0.88,0.01,-3.61,0.79,0.6,0.02,-0.12
30.0175,-1.71,-0.3,-3.69,0.79,0.6,0.02,-0.11
30.0386,-1.15,-0.8,-3.88,0.78,0.61,0.01,-0.11
30.0582,-0.39,-0.61,-3.93,0.78,0.62,0.01,-0.11
30.0893,-0.31,-0.3,-4.05,0.77,0.62,0.01,-0.11
30.1082,-0.36,1.07,-3.79,0.76,0.64,0.0,-0.1
30.1282,0.75,0.07,-4.27,0.76,0.64,-0.0,-0.1
30.1774,0.89,-1.96,-4.65,0.75,0.65,-0.01,-0.1
30.1909,0.07,0.47,-4.16,0.74,0.66,-0.01,-0.1
30.2085,0.2,0.5,-3.94,0.74,0.67,-0.02,-0.09
30.2436,-0.01,0.64,-4.15,0.73,0.67,-0.02,-0.09
30.2586,-0.26,-0.0,-4.36,0.72,0.68,-0.03,-0.09
30.2784,0.26,-0.14,-4.09,0.72,0.69,-0.04,-0.09
30.3543,0.71,-1.98,-3.91,0.72,0.69,-0.04,-0.09
30.3682,2.36,0.14,-4.14,0.7,0.71,-0.06,-0.1
30.3882,2.02,-0.02,-4.0,0.69,0.71,-0.07,-0.1
30.4393,1.29,-1.0,-3.87,0.69,0.71,-0.08,-0.09
30.4587,1.71,-0.83,-2.46,0.67,0.73,-0.11,-0.1
30.4783,3.58,0.29,-2.79,0.66,0.74,-0.12,-0.11
30.5503,2.27,1.08,-1.2,0.65,0.74,-0.13,-0.11
30.5582,3.34,-0.64,1.39,0.61,0.76,-0.18,-0.14
30.5783,2.86,-0.64,2.11,0.6,0.76,-0.2,-0.14
30.6433,3.92,-1.62,2.12,0.59,0.77,-0.21,-0.15
30.6581,1.76,-1.28,3.81,0.55,0.78,-0.25,-0.18
30.6781,0.14,-1.43,4.12,0.54,0.78,-0.27,-0.19
30.7313,-0.05,-1.72,3.85,0.52,0.78,-0.28,-0.2
30.7486,0.72,-1.01,5.61,0.5,0.78,-0.3,-0.23
30.7715,1.1,-1.62,6.16,0.49,0.78,-0.31,-0.23
30.7886,0.99,-2.36,6.36,0.48,0.78,-0.32,-0.24
30.8093,0.64,-2.0,5.79,0.47,0.78,-0.33,-0.24
30.8282,0.79,-1.11,5.02,0.47,0.78,-0.33,-0.25
30.8492,0.98,-0.77,4.04,0.47,0.77,-0.34,-0.26
30.8692,0.53,-1.42,3.38,0.47,0.77,-0.34,-0.26
30.8881,0.54,-1.79,2.52,0.47,0.77,-0.34,-0.26
30.9406,0.7,-1.02,1.7,0.48,0.77,-0.34,-0.26
30.9597,1.39,-0.33,1.66,0.48,0.76,-0.34,-0.26
30.9797,1.2,-0.18,1.59,0.49,0.76,-0.34,-0.26
30.9993,1.15,-0.55,1.77,0.49,0.76,-0.34,-0.26
31.0192,1.8,-0.61,2.56,0.49,0.76,-0.33,-0.26
31.0423,2.45,-0.36,2.9,0.5,0.76,-0.32,-0.26
31.0598,3.36,-0.25,2.43,0.51,0.76,-0.32,-0.26
31.0846,3.2,-0.32,2.62,0.52,0.76,-0.31,-0.26
31.1226,3.46,-0.46,2.84,0.53,0.75,-0.3,-0.26
31.1391,4.96,-1.03,2.25,0.56,0.74,-0.27,-0.26
31.1596,4.39,-1.62,2.2,0.57,0.73,-0.26,-0.26
31.1913,2.86,-2.23,1.8,0.6,0.72,-0.24,-0.26
31.2081,2.17,-2.53,1.4,0.62,0.71,-0.22,-0.26
31.2613,1.93,-1.88,0.43,0.64,0.69,-0.2,-0.25
31.2844,-1.21,-0.86,-0.12,0.69,0.66,-0.16,-0.25
31.3473,-2.2,-0.85,0.13,0.71,0.64,-0.14,-0.25
31.3642,-1.43,-2.57,-0.29,0.76,0.6,-0.09,-0.23
31.3792,0.17,-1.64,-0.82,0.77,0.59,-0.08,-0.22
31.4344,0.65,-0.95,-1.54,0.78,0.58,-0.06,-0.22
31.4523,-4.03,-0.41,-1.5,0.81,0.55,-0.03,-0.2
31.4692,-4.79,-0.89,-1.88,0.82,0.54,-0.03,-0.19
31.5183,-3.37,-0.72,-2.28,0.82,0.54,-0.02,-0.18
31.5397,-3.43,-2.0,-2.75,0.83,0.54,-0.02,-0.16
31.5597,-3.04,-1.61,-2.38,0.83,0.54,-0.02,-0.16
31.5792,-1.23,-1.68,-3.28,0.82,0.55,-0.02,-0.15
31.6244,-1.6,-2.23,-3.68,0.82,0.56,-0.01,-0.14
31.6403,-0.7,1.14,-4.25,0.81,0.57,-0.01,-0.13
31.6603,0.18,-1.4,-4.61,0.8,0.58,-0.01,-0.12
31.6798,-0.94,-2.91,-4.27,0.8,0.59,-0.01,-0.11
31.6997,0.22,-1.29,-5.0,0.79,0.6,-0.0,-0.11
31.7195,1.32,0.4,-5.3,0.78,0.62,0.0,-0.1
31.7396,1.94,0.72,-5.24,0.77,0.63,0.0,-0.1
31.7667,1.22,-0.43,-5.34,0.77,0.64,-0.0,-0.09
31.7796,1.13,-0.91,-5.25,0.76,0.65,-0.0,-0.09
31.8012,2.16,-0.19,-5.48,0.75,0.65,-0.0,-0.09
31.8284,3.36,0.98,-5.56,0.75,0.66,-0.01,-0.09
31.8391,2.56,0.86,-5.14,0.74,0.67,-0.02,-0.09
31.8594,0.86,-0.31,-5.35,0.74,0.67,-0.02,-0.08
31.9183,0.49,0.08,-5.14,0.73,0.67,-0.03,-0.08
31.9291,1.04,1.92,-4.92,0.73,0.68,-0.04,-0.08
31.9501,0.38,0.5,-4.82,0.72,0.68,-0.05,-0.08
32.0274,1.25,-1.27,-4.68,0.72,0.69,-0.06,-0.09
32.0402,0.93,-0.28,-2.81,0.7,0.7,-0.08,-0.1
32.0593,1.58,-1.09,-2.73,0.69,0.71,-0.09,-0.1
32.1074,2.29,-0.89,-2.04,0.68,0.72,-0.1,-0.1
32.1299,2.37,-0.39,-0.76,0.66,0.73,-0.13,-0.11
32.1993,2.07,-1.3,0.21,0.64,0.74,-0.14,-0.12
32.2196,3.28,-2.07,2.88,0.59,0.77,-0.19,-0.15
32.2413,3.9,-1.39,3.75,0.57,0.78,-0.2,-0.15
32.2594,4.07,-1.09,3.93,0.56,0.78,-0.22,-0.16
32.2792,0.68,-1.37,4.85,0.55,0.79,-0.24,-0.17
32.3494,-0.96,-2.8,5.76,0.53,0.79,-0.25,-0.17
32.3691,0.45,0.51,7.14,0.51,0.79,-0.28,-0.18
32.3895,-1.11,-1.2,6.09,0.5,0.79,-0.29,-0.19
32.4093,0.17,-1.87,4.9,0.5,0.79,-0.29,-0.19
32.4294,1.09,0.8,3.49,0.5,0.79,-0.29,-0.19
32.4526,0.53,2.88,2.79,0.5,0.79,-0.28,-0.19
32.4691,0.57,2.67,1.71,0.5,0.79,-0.29,-0.2
32.4894,0.6,-0.36,1.35,0.51,0.79,-0.29,-0.21
32.5584,0.6,-3.82,0.7,0.51,0.78,-0.29,-0.21
32.5701,1.25,-0.85,0.45,0.51,0.78,-0.29,-0.22
32.5906,1.7,-1.25,0.49,0.51,0.78,-0.29,-0.22
32.6095,0.88,0.16,0.92,0.51,0.78,-0.29,-0.22
32.6303,0.45,0.39,1.36,0.52,0.78,-0.29,-0.22
32.6972,1.43,0.23,2.27,0.52,0.78,-0.28,-0.22
32.7206,4.04,-0.46,2.56,0.54,0.77,-0.26,-0.22
32.7537,3.42,-0.64,2.93,0.55,0.76,-0.25,-0.22
32.7695,3.9,-0.81,1.77,0.57,0.75,-0.24,-0.22
32.7892,2.73,-0.08,2.05,0.59,0.74,-0.23,-0.22
32.8155,2.53,-1.77,1.5,0.6,0.73,-0.23,-0.22
32.8307,1.88,-2.5,1.32,0.62,0.72,-0.22,-0.22
32.8502,1.02,-3.48,0.98,0.63,0.72,-0.21,-0.22
32.8723,2.48,-2.53,0.02,0.64,0.71,-0.19,-0.22
32.8905,1.61,0.4,0.21,0.66,0.7,-0.17,-0.22
32.9276,0.82,0.88,-0.32,0.67,0.69,-0.16,-0.22
32.9536,-1.58,-1.23,0.55,0.71,0.66,-0.13,-0.21
32.9908,-1.88,-1.11,-0.04,0.72,0.65,-0.12,-0.2
33.0106,-1.58,0.57,-0.8,0.75,0.62,-0.09,-0.2
33.0321,-0.54,-1.62,-0.35,0.76,0.61,-0.08,-0.2
33.0504,-0.71,-1.95,-0.76,0.78,0.6,-0.07,-0.19
33.1155,-2.62,-1.33,-0.88,0.79,0.59,-0.06,-0.19
33.1301,-3.53,0.13,-1.81,0.81,0.56,-0.02,-0.17
33.1521,-4.5,-0.38,-1.33,0.82,0.55,-0.02,-0.16
33.2084,-5.28,-0.66,-1.49,0.82,0.55,-0.02,-0.15
33.2201,-1.84,-2.62,-3.29,0.82,0.55,-0.02,-0.13
33.2403,-1.13,-1.18,-3.47,0.82,0.56,-0.01,-0.13
33.2846,-1.67,0.49,-3.01,0.82,0.57,-0.01,-0.12
33.3004,0.11,-1.72,-4.41,0.81,0.58,-0.01,-0.11
33.3204,0.27,-2.5,-4.48,0.8,0.59,-0.01,-0.1
33.3438,1.56,0.69,-4.14,0.8,0.6,-0.01,-0.1
33.3605,2.01,1.29,-3.96,0.79,0.6,-0.01,-0.1
33.4333,0.96,-0.56,-4.02,0.79,0.61,-0.02,-0.09
33.4501,1.51,1.48,-4.38,0.76,0.64,-0.03,-0.09
33.4704,2.0,0.18,-4.95,0.76,0.64,-0.04,-0.09
33.4973,1.78,-1.37,-4.66,0.75,0.65,-0.05,-0.08
33.5101,1.84,-0.7,-4.78,0.75,0.66,-0.05,-0.08
33.53,0.94,0.12,-4.61,0.74,0.66,-0.05,-0.08
33.5914,1.57,-0.55,-4.98,0.74,0.67,-0.06,-0.08
33.6101,1.38,0.64,-4.8,0.73,0.68,-0.07,-0.08
33.6301,1.45,0.04,-4.38,0.72,0.68,-0.07,-0.08
33.6511,1.75,-0.2,-3.82,0.72,0.69,-0.08,-0.08
33.7033,3.62,0.07,-3.87,0.71,0.69,-0.08,-0.08
33.7207,1.43,0.45,-1.1,0.7,0.7,-0.1,-0.1
33.7461,1.67,-0.79,-1.0,0.69,0.71,-0.11,-0.11
33.8133,0.78,-0.61,0.13,0.67,0.72,-0.12,-0.12
33.8303,2.11,-0.93,1.14,0.63,0.75,-0.16,-0.14
33.85,1.82,-1.23,1.51,0.62,0.75,-0.17,-0.14
33.8795,1.55,-2.18,2.45,0.6,0.76,-0.19,-0.15
33.8922,1.89,-1.94,2.85,0.59,0.77,-0.2,-0.16
33.911,2.29,-1.75,3.62,0.57,0.77,-0.21,-0.17
33.9883,1.53,-2.03,4.75,0.56,0.78,-0.23,-0.18
34.0107,1.46,-1.2,7.8,0.51,0.79,-0.27,-0.2
34.0523,0.32,0.72,6.44,0.51,0.79,-0.28,-0.2
34.0711,0.79,-0.99,4.54,0.5,0.78,-0.29,-0.22
34.0901,1.3,-1.26,2.8,0.5,0.78,-0.29,-0.22
34.1576,1.89,-0.44,1.54,0.5,0.78,-0.29,-0.23
34.1815,0.36,-0.18,0.16,0.51,0.77,-0.3,-0.24
34.2166,-0.44,0.41,0.05,0.51,0.77,-0.3,-0.24
34.2317,-0.93,-0.78,1.24,0.51,0.77,-0.3,-0.24
34.2545,0.66,-0.85,1.77,0.51,0.77,-0.3,-0.24
34.2704,0.92,-0.65,2.04,0.52,0.77,-0.29,-0.24
34.2916,2.48,1.0,2.63,0.52,0.77,-0.28,-0.24
34.3126,3.92,1.31,2.96,0.52,0.77,-0.28,-0.24
34.3315,5.37,0.08,3.39,0.53,0.77,-0.27,-0.24
34.3514,6.16,-0.6,2.82,0.54,0.77,-0.26,-0.24
34.3807,4.32,-0.71,3.16,0.55,0.76,-0.25,-0.24
34.4015,4.18,-0.1,2.54,0.56,0.75,-0.23,-0.25
34.4254,4.0,-0.3,1.91,0.58,0.74,-0.22,-0.25
34.4415,2.33,-1.23,1.7,0.6,0.73,-0.21,-0.26
34.5123,1.33,-1.97,1.1,0.62,0.72,-0.2,-0.26
34.5201,-0.85,-2.04,0.55,0.67,0.68,-0.16,-0.25
34.5413,-1.07,-1.2,0.1,0.69,0.67,-0.14,-0.25
34.6164,-2.4,-1.51,0.61,0.71,0.65,-0.13,-0.24
34.6311,0.55,-0.68,-0.93,0.76,0.61,-0.08,-0.22
34.6501,-1.64,-0.93,-0.71,0.77,0.6,-0.07,-0.21
34.7103,-3.69,-1.33,-0.74,0.78,0.59,-0.06,-0.21
34.721,0.05,0.08,-2.12,0.79,0.58,-0.03,-0.19
34.7417,-0.84,-0.46,-1.82,0.8,0.57,-0.03,-0.18
34.7617,-2.01,-2.55,-2.19,0.81,0.57,-0.03,-0.17
34.7817,-2.32,-3.57,-3.05,0.81,0.57,-0.02,-0.16
34.8066,-1.91,-1.32,-3.05,0.81,0.57,-0.0,-0.16
34.8211,-2.57,0.02,-3.31,0.81,0.57,0.01,-0.16
34.8401,-3.14,-0.11,-3.62,0.8,0.58,0.02,-0.15
34.8613,-2.45,1.5,-3.48,0.8,0.58,0.02,-0.14
34.9144,-0.37,-0.31,-4.48,0.8,0.59,0.02,-0.13
34.9313,-2.12,-0.23,-4.49,0.78,0.61,0.04,-0.12
34.951,-0.02,2.77,-4.96,0.77,0.63,0.04,-0.12
34.9905,1.25,1.43,-5.28,0.76,0.64,0.04,-0.11
35.0113,0.02,-3.37,-5.7,0.75,0.65,0.02,-0.1
35.031,0.46,-2.09,-5.61,0.74,0.66,0.02,-0.09
35.051,1.84,0.13,-5.64,0.73,0.68,0.02,-0.09
35.1123,3.19,-0.39,-6.37,0.72,0.68,0.01,-0.09
35.121,0.79,0.37,-5.39,0.71,0.69,-0.01,-0.09
35.1417,1.16,-0.15,-5.39,0.71,0.7,-0.02,-0.08
35.1684,1.5,-0.46,-5.76,0.71,0.7,-0.03,-0.08
35.181,1.18,-0.4,-5.38,0.71,0.7,-0.04,-0.08
35.2012,0.22,-1.39,-4.43,0.71,0.7,-0.04,-0.08
35.2324,0.14,-2.13,-4.4,0.7,0.71,-0.05,-0.08
35.2521,1.67,0.22,-3.82,0.69,0.71,-0.06,-0.08
35.271,2.33,0.34,-3.05,0.69,0.72,-0.06,-0.09
35.2914,0.45,-0.16,-1.87,0.68,0.72,-0.07,-0.09
35.3135,0.65,-0.81,-1.53,0.68,0.73,-0.08,-0.09
35.3316,1.03,-0.39,-1.15,0.67,0.73,-0.09,-0.09
35.3515,1.48,0.62,-0.43,0.66,0.74,-0.1,-0.09
35.3715,2.18,0.59,0.38,0.64,0.75,-0.12,-0.1
35.391,2.99,0.13,1.05,0.63,0.76,-0.13,-0.1
35.4116,3.55,-1.23,1.87,0.62,0.77,-0.15,-0.1
35.4406,4.41,-2.65,2.18,0.6,0.77,-0.16,-0.1
35.4615,3.89,-1.71,2.4,0.58,0.79,-0.17,-0.11
35.4816,3.7,-1.37,2.13,0.57,0.79,-0.17,-0.12
35.5013,3.06,-0.06,1.64,0.56,0.8,-0.18,-0.12
35.5214,2.36,0.15,1.79,0.55,0.8,-0.2,-0.13
35.5466,1.38,-1.17,1.85,0.53,0.81,-0.21,-0.14
35.5753,1.41,-2.56,2.41,0.52,0.81,-0.22,-0.15
35.592,2.49,0.95,4.01,0.5,0.82,-0.25,-0.15
35.611,1.57,1.64,4.73,0.49,0.81,-0.28,-0.16
35.6763,-0.09,-0.84,5.61,0.48,0.81,-0.31,-0.17
35.691,2.1,1.93,6.96,0.46,0.81,-0.32,-0.18
35.7126,1.52,2.44,5.93,0.46,0.81,-0.32,-0.19
35.742,0.8,-0.96,4.59,0.46,0.8,-0.33,-0.2
35.761,1.26,0.37,3.03,0.46,0.8,-0.33,-0.2
35.7823,1.54,0.8,2.2,0.46,0.8,-0.33,-0.21
35.8553,2.17,-0.39,0.16,0.47,0.79,-0.32,-0.21
35.8743,0.61,-0.82,-0.47,0.48,0.79,-0.31,-0.22
35.8921,1.15,-0.04,0.44,0.49,0.79,-0.3,-0.21
35.9125,1.75,0.5,2.02,0.49,0.79,-0.29,-0.21
35.9324,2.54,0.39,2.5,0.5,0.79,-0.29,-0.21
35.9933,3.24,-0.77,3.48,0.51,0.79,-0.28,-0.21
36.012,6.17,-0.83,2.67,0.54,0.77,-0.25,-0.21
36.032,4.49,-1.21,2.84,0.56,0.76,-0.24,-0.21
36.0913,3.75,-1.75,2.83,0.58,0.75,-0.23,-0.21
36.102,2.35,-2.89,0.28,0.63,0.72,-0.19,-0.21
36.1242,1.41,-1.65,0.0,0.66,0.71,-0.17,-0.21
36.2013,-0.7,-0.64,0.7,0.68,0.69,-0.15,-0.2
36.2219,-2.79,-1.33,-0.41,0.76,0.62,-0.08,-0.17
36.2422,-2.34,-0.5,-1.11,0.78,0.61,-0.06,-0.16
36.3167,-2.89,1.12,-1.02,0.79,0.59,-0.05,-0.15
36.3325,-2.55,-1.17,-1.89,0.81,0.56,-0.02,-0.14
36.3521,-1.85,-2.29,-2.56,0.81,0.56,-0.01,-0.14
36.4073,-1.44,-2.36,-3.12,0.81,0.56,-0.01,-0.14
36.4221,-1.12,0.42,-4.44,0.8,0.58,0.02,-0.14
36.4423,0.25,-0.25,-4.85,0.8,0.58,0.01,-0.13
36.4756,-0.28,-1.65,-4.92,0.8,0.59,0.01,-0.12
36.4925,-2.68,-3.07,-5.93,0.79,0.61,0.01,-0.11
36.5165,-2.28,-1.71,-5.91,0.78,0.62,0.01,-0.11
36.5326,-0.08,0.84,-6.27,0.77,0.63,0.01,-0.11
36.5596,0.24,0.97,-6.56,0.76,0.64,0.01,-0.11
36.5721,-0.95,0.5,-5.93,0.75,0.66,0.0,-0.11
36.592,-0.16,0.37,-5.86,0.74,0.67,-0.01,-0.11
36.6554,1.44,-2.14,-6.32,0.73,0.68,-0.01,-0.11
36.672,2.05,0.84,-4.54,0.71,0.7,-0.02,-0.11
36.692,1.95,0.5,-4.59,0.7,0.7,-0.03,-0.1
36.7122,2.28,0.75,-4.72,0.7,0.71,-0.04,-0.1
36.7896,2.74,1.41,-4.46,0.7,0.71,-0.05,-0.1
36.8126,1.62,-1.02,-3.68,0.69,0.71,-0.08,-0.11
36.8456,0.89,0.13,-2.41,0.68,0.71,-0.09,-0.11
36.8627,-0.14,-1.21,-1.64,0.68,0.72,-0.1,-0.12
36.8824,1.14,-1.29,-1.56,0.67,0.72,-0.11,-0.13
36.9022,2.57,0.13,-1.59,0.66,0.73,-0.11,-0.13
36.9746,2.59,0.23,-1.0,0.66,0.73,-0.12,-0.13
36.9945,3.27,-1.47,-0.34,0.63,0.75,-0.16,-0.15
37.012,3.27,-1.36,-0.37,0.62,0.75,-0.17,-0.16
37.0575,3.23,-1.43,0.13,0.61,0.75,-0.18,-0.17
37.0731,2.4,-0.69,-0.92,0.59,0.76,-0.21,-0.18
37.092,1.34,-2.66,-1.8,0.57,0.76,-0.22,-0.19
37.1414,1.04,-2.46,-0.12,0.56,0.77,-0.24,-0.2
37.1534,-1.45,-2.63,4.99,0.53,0.78,-0.27,-0.22
37.1724,-2.6,-3.37,7.23,0.51,0.78,-0.28,-0.22
37.2294,-1.2,-3.14,8.9,0.49,0.79,-0.29,-0.23
37.2419,3.82,-1.34,9.59,0.47,0.8,-0.31,-0.23
37.262,3.09,-1.93,7.93,0.47,0.8,-0.31,-0.22
37.3316,2.33,0.02,5.96,0.47,0.8,-0.31,-0.22
37.3432,1.23,0.25,0.63,0.48,0.79,-0.3,-0.23
37.3627,-1.28,-2.18,-0.17,0.49,0.79,-0.3,-0.24
37.3894,-1.3,-1.84,-1.06,0.49,0.78,-0.3,-0.24
37.402,-0.77,-1.16,-1.42,0.49,0.78,-0.29,-0.24
37.422,-0.43,-0.49,-1.44,0.5,0.78,-0.29,-0.24
37.4927,-0.45,-0.4,-0.23,0.5,0.78,-0.29,-0.24
37.5136,4.16,1.49,4.31,0.51,0.78,-0.27,-0.23
37.5463,5.1,1.57,4.67,0.52,0.78,-0.27,-0.23
37.5633,5.23,-0.82,4.59,0.53,0.77,-0.26,-0.23
37.583,3.73,-1.8,4.79,0.55,0.76,-0.25,-0.23
37.6052,3.86,-1.64,4.72,0.57,0.75,-0.24,-0.23
37.6823,4.66,-1.35,3.28,0.59,0.74,-0.23,-0.23
37.7024,0.31,-1.37,0.14,0.68,0.67,-0.17,-0.23
37.7235,-0.62,-1.2,-0.24,0.71,0.65,-0.16,-0.22
37.7435,-0.07,-1.55,0.13,0.73,0.63,-0.15,-0.21
37.7675,0.9,-2.55,-0.88,0.75,0.61,-0.14,-0.21
37.8064,-0.43,-2.82,-0.92,0.77,0.59,-0.12,-0.2
37.8237,-2.81,0.5,-1.38,0.8,0.57,-0.08,-0.19
37.8482,-3.23,1.55,-1.54,0.81,0.56,-0.07,-0.18
37.8626,-2.98,-0.28,-1.84,0.82,0.55,-0.06,-0.18
37.8837,-3.1,-1.49,-2.46,0.82,0.54,-0.05,-0.17
37.9104,-2.03,-0.77,-2.73,0.82,0.54,-0.05,-0.16
37.9333,-2.16,-1.46,-3.58,0.83,0.54,-0.04,-0.15
38.0064,-2.61,-2.48,-3.64,0.83,0.54,-0.03,-0.14
38.0253,0.01,1.98,-4.46,0.81,0.57,-0.01,-0.13
38.043,-1.8,-2.23,-4.65,0.81,0.57,-0.02,-0.12
38.0905,-2.12,-3.56,-5.64,0.8,0.58,-0.02,-0.12
38.103,-0.27,2.68,-5.54,0.79,0.6,-0.0,-0.13
38.123,0.72,1.25,-5.73,0.78,0.61,-0.01,-0.12
38.1923,-0.45,-1.9,-6.05,0.77,0.63,-0.02,-0.11
38.2137,3.23,1.92,-5.76,0.74,0.66,-0.03,-0.12
38.2337,0.83,-0.08,-5.16,0.73,0.67,-0.03,-0.11
38.2533,0.95,-0.19,-5.48,0.73,0.67,-0.04,-0.11
38.2766,1.8,1.19,-5.51,0.73,0.68,-0.05,-0.11
38.2935,1.83,0.92,-5.03,0.72,0.68,-0.06,-0.11
38.3133,2.21,-0.95,-5.23,0.72,0.68,-0.07,-0.11
38.3333,1.43,-1.32,-5.08,0.72,0.68,-0.08,-0.11
38.3536,0.71,-0.63,-3.62,0.72,0.68,-0.08,-0.11
38.3787,1.43,-0.58,-3.76,0.71,0.69,-0.09,-0.11
38.395,1.93,-1.92,-2.86,0.71,0.69,-0.09,-0.12
38.413,2.08,-1.49,-2.55,0.7,0.69,-0.09,-0.12
38.4824,1.54,0.72,-1.28,0.7,0.7,-0.09,-0.12
38.5035,1.95,-0.7,-0.18,0.67,0.72,-0.13,-0.13
38.5234,3.16,-0.41,-0.07,0.66,0.73,-0.14,-0.14
38.5429,3.63,1.37,-0.4,0.65,0.73,-0.16,-0.14
38.6123,1.83,1.29,0.04,0.64,0.73,-0.18,-0.15
38.6339,1.94,-3.24,1.73,0.58,0.75,-0.26,-0.18
38.6539,3.25,-1.36,2.14,0.57,0.75,-0.27,-0.19
38.6729,3.3,-1.37,2.65,0.55,0.76,-0.29,-0.2
38.7433,0.95,-3.05,4.91,0.54,0.76,-0.3,-0.22
38.7634,0.52,-0.55,9.53,0.49,0.77,-0.31,-0.25
38.7832,-0.27,-1.12,9.09,0.49,0.77,-0.32,-0.25
38.8035,-1.67,-4.59,8.95,0.49,0.76,-0.33,-0.25
38.8233,-0.01,-2.95,6.72,0.49,0.76,-0.34,-0.25
38.8429,4.41,1.04,3.17,0.49,0.76,-0.34,-0.25
38.8641,4.51,0.96,1.19,0.5,0.75,-0.34,-0.26
38.9394,3.66,-0.77,-0.2,0.5,0.75,-0.35,-0.27
38.9635,-1.02,-1.0,-2.32,0.52,0.74,-0.34,-0.27
39.0164,-1.11,0.43,-1.88,0.52,0.74,-0.33,-0.27
39.034,-0.59,-0.13,2.2,0.52,0.75,-0.32,-0.26
39.0539,0.57,-0.62,3.21,0.52,0.75,-0.32,-0.26
39.1253,1.91,-2.14,4.2,0.52,0.75,-0.31,-0.26
39.1439,6.59,-1.72,3.73,0.55,0.75,-0.28,-0.25
39.1642,5.53,-2.34,3.16,0.57,0.74,-0.27,-0.25
39.2043,4.32,-1.76,2.58,0.58,0.73,-0.26,-0.24
39.2239,4.1,-1.62,1.46,0.62,0.71,-0.22,-0.24
39.2442,3.43,-0.87,0.87,0.65,0.7,-0.2,-0.24
39.2642,2.05,-0.19,0.39,0.67,0.68,-0.19,-0.24
39.2918,0.06,-0.53,0.39,0.69,0.66,-0.17,-0.23
39.3146,-1.42,-0.89,0.2,0.72,0.64,-0.14,-0.23
39.3514,-1.02,0.18,-0.04,0.74,0.62,-0.12,-0.23
39.3745,-0.87,-2.08,-0.23,0.78,0.58,-0.09,-0.22
39.4177,-0.58,-2.88,-1.27,0.79,0.57,-0.07,-0.22
39.4346,-2.69,-0.21,-2.19,0.81,0.54,-0.04,-0.21
39.4544,-3.98,0.64,-1.82,0.82,0.53,-0.03,-0.21
39.4864,-4.26,0.18,-2.04,0.82,0.53,-0.03,-0.2
39.5043,-3.79,-2.39,-2.98,0.83,0.52,-0.03,-0.19
39.5244,-2.41,-1.0,-3.48,0.83,0.52,-0.03,-0.18
39.5441,-2.43,-1.23,-3.55,0.83,0.53,-0.03,-0.17
39.5884,-2.31,-2.76,-3.45,0.83,0.53,-0.03,-0.17
39.604,-1.25,-1.55,-3.7,0.83,0.54,-0.02,-0.16
39.624,-2.07,-2.51,-3.71,0.82,0.55,-0.02,-0.16
39.6953,-1.37,-0.39,-4.78,0.82,0.56,-0.01,-0.15
39.714,0.14,-1.46,-5.79,0.79,0.6,-0.01,-0.13
39.7339,0.85,-0.67,-5.77,0.78,0.61,-0.01,-0.12
39.8053,0.08,0.53,-6.05,0.77,0.63,-0.01,-0.12
39.8249,2.68,-0.34,-5.55,0.74,0.66,-0.02,-0.11
39.8439,2.42,0.18,-5.08,0.73,0.67,-0.02,-0.11
39.9153,2.24,0.97,-5.19,0.73,0.68,-0.03,-0.11
39.9341,1.5,0.07,-5.4,0.72,0.69,-0.06,-0.1
39.9539,1.07,-0.04,-4.83,0.71,0.69,-0.07,-0.1
40.0233,2.14,-0.51,-4.7,0.71,0.69,-0.07,-0.11
40.044,1.3,-0.33,-2.58,0.7,0.7,-0.1,-0.12
40.064,2.14,-0.31,-1.96,0.69,0.7,-0.11,-0.13
40.1075,2.41,-1.02,-1.47,0.68,0.71,-0.12,-0.13
40.1289,3.78,-0.34,-0.81,0.66,0.72,-0.15,-0.15
40.1439,4.08,-2.85,-0.54,0.65,0.73,-0.17,-0.15
40.1642,2.34,-3.32,0.45,0.63,0.73,-0.18,-0.16
40.2418,2.7,-2.38,0.66,0.62,0.74,-0.19,-0.17
40.2564,1.52,-1.6,1.42,0.57,0.76,-0.24,-0.2
40.2752,0.93,-1.28,1.73,0.55,0.77,-0.25,-0.21
40.3114,1.48,-0.26,4.84,0.54,0.77,-0.27,-0.22
40.3293,-1.04,-4.18,8.54,0.52,0.77,-0.29,-0.23
40.3445,-1.95,-4.92,10.22,0.5,0.77,-0.3,-0.24
40.3738,-0.84,-3.84,10.45,0.49,0.78,-0.3,-0.24
40.3939,4.2,0.89,7.24,0.48,0.79,-0.3,-0.25
40.4149,3.45,2.23,6.15,0.48,0.78,-0.3,-0.25
40.4342,1.35,1.05,4.54,0.48,0.78,-0.31,-0.26
40.4956,2.56,-1.33,2.73,0.48,0.77,-0.31,-0.26
40.5142,-0.69,-0.25,-0.21,0.49,0.76,-0.32,-0.28
40.5352,-1.06,-2.16,0.09,0.49,0.76,-0.32,-0.28
40.5665,-0.85,-1.36,-0.2,0.5,0.76,-0.32,-0.28
40.5838,-0.64,1.03,0.84,0.5,0.76,-0.31,-0.28
40.6049,0.32,0.39,1.73,0.5,0.76,-0.31,-0.28
40.6723,2.18,-1.37,3.04,0.5,0.76,-0.31,-0.28
40.6851,4.16,-1.44,4.72,0.52,0.75,-0.3,-0.27
40.7042,5.12,-1.5,4.93,0.53,0.75,-0.29,-0.27
40.7567,4.94,-1.49,4.54,0.55,0.74,-0.28,-0.27
40.7766,2.26,-1.5,1.83,0.6,0.72,-0.25,-0.26
40.7952,1.79,-1.2,1.57,0.62,0.7,-0.24,-0.26
40.8246,0.45,-0.77,2.01,0.64,0.69,-0.22,-0.25
40.8504,0.06,-1.41,0.82,0.67,0.67,-0.2,-0.25
40.9079,1.58,-1.23,-0.99,0.69,0.65,-0.18,-0.24
40.931,0.98,-1.49,-0.59,0.75,0.61,-0.13,-0.22
40.955,-0.21,-0.48,-1.16,0.77,0.59,-0.09,-0.21
40.9753,-1.6,1.57,-1.52,0.79,0.57,-0.08,-0.21
41.0223,-2.82,1.82,-0.93,0.8,0.56,-0.07,-0.2
41.0452,-3.46,-1.53,-1.28,0.83,0.53,-0.05,-0.17
41.1264,-2.59,-1.55,-1.54,0.83,0.53,-0.04,-0.16
41.1453,-1.63,-5.14,-3.34,0.83,0.54,-0.02,-0.13
41.1683,-1.51,-2.61,-3.36,0.83,0.55,-0.0,-0.12
41.2155,-1.31,-0.16,-3.55,0.82,0.56,0.01,-0.12
41.2352,-1.83,-4.56,-4.47,0.81,0.58,0.01,-0.11
41.2553,-1.21,-3.21,-4.76,0.8,0.59,0.02,-0.11
41.2867,-0.8,1.16,-4.89,0.79,0.6,0.03,-0.11
41.3053,-0.27,1.22,-4.01,0.78,0.62,0.03,-0.11
41.3251,-0.28,-1.29,-4.65,0.77,0.63,0.02,-0.1
41.3544,-0.25,-1.27,-5.34,0.76,0.64,0.01,-0.1
41.3649,0.16,1.15,-5.37,0.75,0.65,0.01,-0.1
41.3851,1.2,1.27,-5.36,0.74,0.66,0.01,-0.1
41.4605,1.85,0.18,-5.62,0.74,0.67,0.0,-0.11
41.4748,2.54,1.45,-4.9,0.72,0.68,-0.02,-0.1
41.4951,3.66,1.3,-5.24,0.72,0.69,-0.03,-0.1
41.5544,3.04,1.04,-5.32,0.72,0.69,-0.05,-0.1
41.5749,0.87,-0.5,-4.3,0.71,0.69,-0.07,-0.11
41.5949,1.48,0.25,-4.36,0.71,0.69,-0.08,-0.11
41.6663,2.36,1.06,-3.84,0.71,0.69,-0.08,-0.12
41.6849,0.05,-0.77,-2.41,0.68,0.71,-0.12,-0.13
41.7048,2.6,0.02,-2.25,0.67,0.72,-0.13,-0.14
41.7764,3.54,-0.47,-2.13,0.66,0.72,-0.14,-0.15
41.7949,2.59,-2.41,-1.26,0.6,0.75,-0.19,-0.18
41.8169,5.87,-1.8,0.41,0.58,0.76,-0.21,-0.19
41.8893,6.38,-1.52,0.62,0.56,0.77,-0.23,-0.19
41.9048,2.3,-3.8,8.76,0.5,0.79,-0.28,-0.22
41.9248,1.65,-2.19,10.52,0.48,0.8,-0.28,-0.23
41.9963,3.45,-1.25,10.96,0.47,0.81,-0.28,-0.23
42.0148,-0.97,0.05,6.35,0.46,0.8,-0.3,-0.25
42.0348,-0.5,-3.12,3.88,0.46,0.79,-0.3,-0.26
42.1065,-0.21,-2.78,2.86,0.47,0.79,-0.31,-0.26
42.1249,1.11,-1.26,-0.66,0.48,0.78,-0.3,-0.27
42.1452,1.23,0.01,-0.7,0.48,0.78,-0.3,-0.26
42.2117,0.93,0.68,-0.62,0.49,0.78,-0.3,-0.26
42.2253,0.66,0.65,1.42,0.5,0.78,-0.29,-0.25
42.2452,1.54,-0.62,1.35,0.5,0.78,-0.29,-0.25
42.3135,5.57,-2.15,1.15,0.5,0.78,-0.28,-0.25
42.3258,2.43,0.73,2.05,0.54,0.77,-0.26,-0.23
42.3478,2.83,-0.68,2.17,0.55,0.77,-0.25,-0.22
42.4158,2.01,0.02,2.47,0.56,0.76,-0.24,-0.21
42.436,-0.76,-0.5,2.38,0.62,0.73,-0.19,-0.2
42.4582,-0.08,-0.02,1.98,0.64,0.72,-0.17,-0.2
42.4844,-0.09,0.05,1.5,0.66,0.71,-0.16,-0.2
42.5063,-2.07,-1.02,0.57,0.68,0.69,-0.14,-0.2
42.5312,-3.02,-2.73,0.73,0.7,0.67,-0.13,-0.2
42.5461,-1.45,-3.46,0.86,0.71,0.66,-0.11,-0.19
42.5853,0.87,-1.84,1.0,0.73,0.65,-0.09,-0.19
42.6081,-0.67,-0.61,0.63,0.75,0.63,-0.05,-0.19
42.6874,-1.18,-0.6,0.21,0.77,0.61,-0.04,-0.19
42.7115,-0.9,-0.64,-0.52,0.8,0.57,-0.01,-0.18
42.7544,-1.38,0.08,-0.3,0.81,0.56,-0.01,-0.18
42.7764,-2.0,-3.68,-1.99,0.82,0.55,-0.01,-0.17
42.7963,-1.56,-2.21,-2.02,0.82,0.55,-0.0,-0.16
42.8164,-0.82,-1.32,-2.57,0.82,0.55,-0.0,-0.16
42.8714,-0.95,-2.54,-3.7,0.82,0.55,0.0,-0.16
42.8858,-0.77,-0.12,-4.32,0.81,0.57,0.03,-0.15
42.9061,0.32,-0.08,-5.33,0.8,0.58,0.03,-0.15
42.9258,0.51,0.04,-5.45,0.8,0.59,0.03,-0.14
42.9466,-0.6,-0.34,-5.13,0.79,0.59,0.03,-0.14
42.9878,-0.89,-0.34,-5.04,0.79,0.6,0.04,-0.13
43.0065,0.24,1.93,-5.42,0.77,0.62,0.03,-0.13
43.0261,-0.11,1.02,-5.81,0.77,0.63,0.02,-0.13
43.0813,-0.21,0.18,-5.96,0.76,0.64,0.01,-0.13
43.0959,2.3,0.09,-6.57,0.74,0.66,-0.01,-0.13
43.1158,2.98,0.31,-6.71,0.74,0.66,-0.02,-0.13
43.1857,2.37,-1.43,-6.66,0.74,0.67,-0.03,-0.12
43.2059,1.09,0.79,-4.91,0.73,0.67,-0.05,-0.12
43.2258,1.39,0.05,-4.8,0.73,0.67,-0.05,-0.12
43.2953,0.69,0.0,-3.71,0.73,0.67,-0.06,-0.13
43.3164,1.95,0.1,-1.68,0.7,0.7,-0.1,-0.13
43.3378,2.45,-1.96,-1.3,0.69,0.7,-0.11,-0.14
43.3563,3.53,-0.99,-1.18,0.68,0.71,-0.12,-0.14
43.3954,2.28,0.18,-0.14,0.66,0.72,-0.13,-0.15
43.4168,2.64,-1.87,-0.49,0.63,0.74,-0.16,-0.16
43.4466,4.32,-2.34,-0.11,0.6,0.76,-0.18,-0.17
43.4821,4.3,-1.63,-0.21,0.59,0.77,-0.19,-0.18
43.4964,2.62,-3.6,1.71,0.56,0.78,-0.22,-0.19
43.5179,2.14,-3.7,4.16,0.54,0.78,-0.23,-0.2
43.5763,2.18,-2.94,4.8,0.52,0.79,-0.25,-0.2
43.5982,2.81,-3.79,9.5,0.47,0.81,-0.29,-0.23
43.6169,2.39,-3.43,9.68,0.46,0.81,-0.3,-0.23
43.636,1.75,-1.15,8.82,0.45,0.81,-0.3,-0.23
43.7134,2.19,0.18,8.13,0.44,0.81,-0.3,-0.23
43.7361,0.98,-2.53,1.96,0.45,0.79,-0.32,-0.26
43.8137,1.0,-2.73,1.14,0.45,0.79,-0.32,-0.26
43.8263,-0.3,-0.23,0.5,0.47,0.78,-0.32,-0.26
43.8462,0.31,-0.59,0.1,0.47,0.78,-0.32,-0.26
43.9124,1.05,-0.86,0.72,0.47,0.78,-0.32,-0.26
43.9268,3.23,0.65,1.94,0.49,0.78,-0.3,-0.25
43.9468,3.72,0.25,2.5,0.49,0.78,-0.3,-0.25
44.0143,4.86,-0.47,2.44,0.5,0.78,-0.3,-0.24
44.0268,3.74,-0.62,2.25,0.54,0.76,-0.27,-0.23
44.0498,4.31,-1.57,1.96,0.55,0.76,-0.26,-0.23
44.1163,3.45,-1.29,2.12,0.57,0.75,-0.25,-0.23
44.139,1.25,-2.15,0.05,0.64,0.71,-0.2,-0.23
44.2163,0.94,-0.37,0.16,0.66,0.69,-0.18,-0.22
44.2396,-0.46,-1.32,-0.33,0.74,0.63,-0.11,-0.21
44.2767,-0.38,-1.3,-0.33,0.76,0.61,-0.1,-0.21
44.2972,0.84,-0.24,-1.53,0.78,0.58,-0.07,-0.2
44.3191,-2.49,0.21,-0.91,0.8,0.57,-0.05,-0.2
44.3364,-2.7,-0.19,-1.26,0.81,0.55,-0.05,-0.2
44.3934,-1.96,-1.0,-1.52,0.82,0.54,-0.04,-0.2
44.417,-0.5,0.88,-2.6,0.83,0.52,-0.02,-0.18
44.4964,-1.27,-1.72,-2.34,0.84,0.52,-0.03,-0.17
44.5169,-2.85,-1.86,-3.53,0.84,0.52,-0.01,-0.15
44.5369,-4.12,-0.13,-3.9,0.83,0.53,-0.0,-0.14
44.6093,-4.06,0.18,-4.19,0.83,0.54,0.0,-0.14
44.6278,-3.18,-0.81,-5.74,0.8,0.59,0.01,-0.11
44.6478,-1.27,1.8,-6.31,0.79,0.6,0.01,-0.11
44.7224,-0.48,2.09,-5.68,0.78,0.61,0.01,-0.11
44.7388,1.76,1.17,-6.14,0.74,0.67,-0.01,-0.09
44.7571,2.15,1.31,-5.89,0.73,0.68,-0.01,-0.09
44.8265,1.98,0.4,-5.67,0.72,0.69,-0.02,-0.09
44.8472,1.88,0.69,-5.41,0.69,0.72,-0.05,-0.08
44.8721,2.2,1.23,-4.94,0.69,0.72,-0.06,-0.08
44.8873,2.52,0.02,-5.34,0.68,0.72,-0.07,-0.09
44.9307,2.25,-1.82,-5.34,0.68,0.72,-0.08,-0.09
44.9473,2.85,-0.75,-5.48,0.67,0.73,-0.09,-0.1
44.9668,0.33,0.08,-3.91,0.67,0.73,-0.1,-0.1
44.9987,2.2,-1.68,-4.87,0.66,0.74,-0.11,-0.1
45.0169,3.5,0.59,-4.22,0.65,0.74,-0.13,-0.11
45.0372,3.5,-0.86,-3.27,0.64,0.75,-0.15,-0.12
45.0604,1.55,-2.09,-1.23,0.62,0.75,-0.16,-0.13
45.1004,2.5,-2.81,-0.61,0.61,0.76,-0.17,-0.14
45.1167,6.0,-0.77,1.06,0.57,0.78,-0.19,-0.16
45.14,5.47,-1.75,1.5,0.55,0.79,-0.21,-0.18
45.2083,1.44,-4.21,6.36,0.53,0.79,-0.23,-0.19
45.2272,4.94,-1.8,9.45,0.47,0.82,-0.27,-0.21
45.247,3.96,-1.22,9.68,0.46,0.82,-0.27,-0.21
45.2703,2.6,-1.04,9.69,0.46,0.82,-0.28,-0.21
45.2872,1.95,-0.77,8.48,0.46,0.82,-0.28,-0.21
45.3071,1.21,1.15,6.56,0.46,0.81,-0.29,-0.21
45.3577,1.47,2.14,4.52,0.46,0.81,-0.29,-0.21
45.377,2.64,0.21,2.12,0.47,0.8,-0.29,-0.23
45.3967,3.92,0.53,1.87,0.48,0.8,-0.29,-0.23
45.4593,4.5,1.02,1.7,0.49,0.79,-0.28,-0.23
45.4777,6.2,-0.25,1.39,0.54,0.76,-0.27,-0.25
45.4977,3.26,-2.01,2.07,0.56,0.74,-0.27,-0.25
45.5664,0.8,-1.89,3.09,0.58,0.73,-0.26,-0.26
45.5867,0.96,-0.97,1.59,0.64,0.69,-0.2,-0.27
45.6077,0.82,-1.67,0.6,0.66,0.67,-0.19,-0.27
45.6774,-0.54,-1.56,0.86,0.68,0.66,-0.17,-0.28
45.698,-2.37,-1.22,-0.05,0.75,0.6,-0.12,-0.27
45.7203,-0.43,-1.36,-1.13,0.76,0.58,-0.11,-0.27
45.7381,0.95,-0.55,-1.5,0.77,0.56,-0.1,-0.27
45.7956,2.51,0.83,-1.69,0.79,0.55,-0.09,-0.26
45.8083,-4.01,-3.24,-0.88,0.83,0.5,-0.08,-0.24
45.8285,-3.26,-1.87,-0.63,0.83,0.5,-0.07,-0.24
45.8756,-0.99,0.33,-1.42,0.84,0.49,-0.06,-0.24
45.8885,-1.19,-0.39,-1.95,0.85,0.47,-0.06,-0.22
45.9081,-3.64,-3.07,-1.14,0.86,0.47,-0.06,-0.21
45.9637,-3.54,-2.45,-1.3,0.86,0.47,-0.05,-0.2
45.9782,-2.96,-2.54,-2.01,0.86,0.49,-0.04,-0.17
45.9981,-2.47,-0.84,-2.34,0.85,0.5,-0.04,-0.16
46.066,-1.94,0.42,-2.51,0.85,0.51,-0.03,-0.16
46.0777,0.2,0.29,-4.7,0.83,0.54,-0.02,-0.13
46.0998,-0.16,-1.56,-4.52,0.82,0.56,-0.02,-0.13
46.1724,-0.73,-2.12,-4.86,0.81,0.57,-0.02,-0.12
46.1877,0.31,0.43,-6.03,0.78,0.61,-0.02,-0.11
46.2078,-0.41,-0.2,-6.35,0.78,0.62,-0.02,-0.11
46.2813,-0.54,0.96,-6.18,0.77,0.63,-0.02,-0.12
46.2978,-0.1,-1.42,-6.29,0.74,0.66,-0.05,-0.11
46.318,2.21,1.71,-6.76,0.73,0.67,-0.05,-0.11
46.3894,3.81,2.23,-6.96,0.73,0.67,-0.05,-0.11
46.4077,1.9,-1.4,-5.62,0.71,0.69,-0.08,-0.11
46.4277,2.71,0.6,-4.98,0.71,0.69,-0.08,-0.12
46.4993,2.01,1.01,-3.86,0.7,0.69,-0.09,-0.12
46.5183,5.44,-0.07,-2.91,0.67,0.72,-0.14,-0.14
46.5383,3.02,-1.41,-2.31,0.66,0.72,-0.16,-0.14
46.6044,2.47,-1.99,-2.32,0.64,0.73,-0.17,-0.15
46.6329,4.49,-4.24,1.4,0.56,0.77,-0.24,-0.2
46.7103,2.26,-4.49,5.41,0.54,0.78,-0.26,-0.21
46.7277,3.97,-3.4,11.93,0.45,0.81,-0.3,-0.23
46.7477,2.84,-1.54,10.24,0.44,0.81,-0.3,-0.23
46.8196,2.44,-0.84,9.95,0.44,0.81,-0.3,-0.23
46.8378,2.12,2.49,2.95,0.44,0.81,-0.31,-0.24
46.858,-0.05,-2.43,2.24,0.45,0.8,-0.31,-0.25
46.9277,0.55,-4.41,2.12,0.45,0.8,-0.31,-0.25
46.9481,0.92,0.59,2.16,0.47,0.79,-0.29,-0.24
46.9682,2.56,-0.82,1.87,0.48,0.79,-0.29,-0.24
46.9894,3.13,-0.94,1.81,0.49,0.79,-0.28,-0.24
47.0428,2.62,-0.34,1.83,0.5,0.79,-0.28,-0.23
47.059,2.64,0.36,1.04,0.54,0.77,-0.26,-0.23
47.079,2.76,-0.59,1.16,0.55,0.76,-0.25,-0.22
47.1466,2.64,-1.44,0.98,0.57,0.76,-0.24,-0.22
47.1588,2.05,0.34,0.71,0.62,0.73,-0.2,-0.21
47.179,1.18,0.59,1.17,0.64,0.72,-0.19,-0.2
47.2406,-0.99,-0.03,1.62,0.65,0.71,-0.18,-0.2
47.2594,2.01,0.69,0.86,0.7,0.68,-0.12,-0.19
47.2816,0.81,-0.5,1.58,0.71,0.67,-0.1,-0.19
47.3273,0.41,-1.46,1.33,0.73,0.65,-0.09,-0.19
47.354,1.13,0.0,0.61,0.76,0.62,-0.04,-0.19
47.4303,1.79,-0.18,-0.51,0.77,0.6,-0.03,-0.19
47.4534,-1.52,-3.46,-1.24,0.82,0.55,-0.01,-0.16
47.5146,-1.25,-1.77,-1.67,0.83,0.54,0.0,-0.16
47.5291,-4.61,-1.24,-1.61,0.84,0.52,0.01,-0.14
47.5492,-4.13,-2.92,-2.11,0.84,0.52,0.01,-0.13
47.5963,-1.79,-2.13,-3.29,0.84,0.53,0.01,-0.12
47.6087,-2.39,-0.11,-3.03,0.84,0.53,0.02,-0.12
47.6287,-2.8,-0.69,-2.95,0.83,0.54,0.02,-0.12
47.7004,-3.45,-1.68,-3.45,0.83,0.55,0.03,-0.11
47.7189,-0.72,0.72,-4.84,0.8,0.58,0.04,-0.1
47.7387,-2.45,-1.65,-5.09,0.8,0.6,0.04,-0.1
47.8006,-2.54,-1.59,-5.21,0.79,0.61,0.04,-0.1
47.8217,0.47,-0.4,-5.45,0.76,0.64,0.02,-0.1
47.8386,-0.32,-0.7,-6.03,0.75,0.65,0.01,-0.1
47.9102,1.01,0.72,-5.93,0.74,0.66,0.01,-0.1
47.9286,0.89,0.36,-6.08,0.72,0.69,-0.04,-0.1
47.954,1.9,0.62,-6.3,0.71,0.69,-0.05,-0.09
48.0047,2.74,-2.02,-7.47,0.71,0.7,-0.06,-0.1
48.0191,1.52,0.41,-5.55,0.7,0.7,-0.07,-0.1
48.0388,1.87,1.3,-5.09,0.69,0.71,-0.07,-0.11
48.0803,2.71,0.07,-4.8,0.69,0.71,-0.09,-0.11
48.099,3.93,-1.88,-3.78,0.67,0.72,-0.11,-0.12
48.1207,4.04,-1.26,-0.98,0.67,0.72,-0.13,-0.13
48.1953,4.52,-1.29,-0.55,0.66,0.73,-0.14,-0.13
48.2146,3.2,-2.31,3.13,0.6,0.76,-0.19,-0.17
48.2396,4.86,-4.32,3.82,0.57,0.77,-0.22,-0.18
48.3083,0.61,-6.24,6.05,0.55,0.78,-0.24,-0.19
48.3287,3.39,-0.95,10.84,0.5,0.8,-0.28,-0.19
48.3487,0.88,-0.26,10.7,0.49,0.8,-0.29,-0.19
48.4203,1.29,1.65,10.11,0.49,0.8,-0.29,-0.19
48.4386,0.99,-0.76,4.22,0.5,0.77,-0.31,-0.22
48.4607,0.24,-2.17,1.25,0.51,0.77,-0.32,-0.23
48.5353,0.61,-1.83,0.6,0.52,0.76,-0.31,-0.23
48.5486,-0.81,0.56,-1.01,0.54,0.75,-0.3,-0.23
48.5687,-0.82,0.49,-0.61,0.55,0.75,-0.29,-0.23
48.6413,-0.44,0.4,-0.07,0.55,0.75,-0.29,-0.23
48.6603,2.66,0.19,1.6,0.57,0.74,-0.26,-0.23
48.6831,3.45,0.05,1.79,0.58,0.74,-0.26,-0.23
48.7464,3.1,-0.36,1.52,0.58,0.74,-0.25,-0.23
48.7704,1.96,-0.31,1.66,0.62,0.71,-0.21,-0.24
48.8386,0.88,-0.18,1.7,0.64,0.7,-0.21,-0.24
48.8596,-1.13,-1.11,0.59,0.68,0.67,-0.17,-0.23
48.8796,1.37,0.23,1.18,0.69,0.66,-0.16,-0.23
48.9474,2.97,-1.01,1.05,0.71,0.65,-0.15,-0.22
48.9596,0.95,0.14,0.21,0.75,0.62,-0.1,-0.22
48.9798,1.14,0.98,0.2,0.76,0.61,-0.09,-0.22
49.0553,0.25,0.41,0.09,0.77,0.59,-0.08,-0.21
49.0697,-2.56,0.69,-0.39,0.8,0.56,-0.05,-0.2
49.0897,-1.22,-0.03,-0.29,0.81,0.55,-0.06,-0.19
49.1614,-1.68,-2.31,-0.29,0.81,0.55,-0.06,-0.18
49.1796,-1.57,-1.76,-1.93,0.82,0.55,-0.04,-0.15
49.1996,-0.93,-0.66,-2.19,0.82,0.55,-0.03,-0.14
49.2733,-1.84,-0.35,-2.99,0.82,0.56,-0.03,-0.13
49.2896,-1.0,0.54,-4.66,0.8,0.58,-0.01,-0.11
49.3096,-1.59,0.62,-4.99,0.8,0.59,-0.01,-0.11
49.3813,-3.81,-1.13,-5.59,0.79,0.6,-0.01,-0.1
49.4016,0.96,1.53,-7.24,0.76,0.65,-0.01,-0.08
49.4196,1.32,1.56,-6.87,0.74,0.66,-0.01,-0.08
49.4396,3.28,0.12,-7.41,0.73,0.67,-0.02,-0.09
49.4596,4.37,-0.33,-7.49,0.73,0.68,-0.03,-0.09
49.5313,3.2,-0.07,-7.21,0.72,0.69,-0.04,-0.09
49.5497,2.45,-1.61,-6.21,0.71,0.69,-0.07,-0.09
49.5701,3.56,-0.21,-6.56,0.71,0.7,-0.07,-0.09
49.6294,0.53,1.12,-5.34,0.71,0.7,-0.08,-0.1
49.6496,2.49,-1.69,-4.12,0.69,0.7,-0.1,-0.12
49.6696,1.81,-0.27,-2.66,0.68,0.71,-0.11,-0.13
49.7413,1.93,-0.06,-1.89,0.67,0.72,-0.12,-0.13
49.7596,3.88,-0.18,0.29,0.62,0.75,-0.17,-0.17
49.7796,3.13,-3.3,2.11,0.6,0.76,-0.2,-0.18
49.7996,3.82,-4.49,3.59,0.57,0.77,-0.22,-0.19
49.8216,2.79,-4.25,7.03,0.55,0.78,-0.23,-0.19
49.8943,2.67,-3.96,7.8,0.53,0.79,-0.25,-0.19
49.9096,3.72,-1.66,10.75,0.48,0.81,-0.28,-0.2
49.9299,1.69,-0.37,8.8,0.47,0.81,-0.29,-0.2
49.9795,0.59,1.41,7.3,0.47,0.81,-0.29,-0.2
49.9999,1.66,0.61,2.82,0.48,0.8,-0.29,-0.21
50.0209,0.77,-1.37,1.64,0.48,0.8,-0.29,-0.22
50.0843,-1.23,-3.11,0.99,0.49,0.79,-0.29,-0.23
50.1006,-0.11,-1.94,0.04,0.5,0.78,-0.29,-0.24
50.1206,-0.93,-1.55,-0.07,0.51,0.78,-0.29,-0.23
50.1923,0.08,-0.78,-0.23,0.51,0.78,-0.29,-0.23
50.211,2.39,0.94,0.49,0.52,0.78,-0.28,-0.21
50.2351,2.73,0.38,0.57,0.53,0.77,-0.27,-0.21
50.2949,2.63,0.1,0.86,0.54,0.77,-0.26,-0.21
50.3099,2.26,-0.39,1.53,0.56,0.76,-0.25,-0.21
50.3306,2.42,-0.5,1.7,0.57,0.75,-0.24,-0.21
50.3923,2.8,0.1,1.62,0.59,0.75,-0.23,-0.22
50.4035,1.58,-0.74,1.67,0.62,0.72,-0.21,-0.22
50.4211,1.25,-0.14,1.66,0.64,0.71,-0.2,-0.22
50.4993,1.32,-0.06,1.65,0.65,0.7,-0.19,-0.22
50.5105,0.02,-0.02,0.62,0.71,0.65,-0.15,-0.22
50.5309,-0.02,-0.01,0.33,0.72,0.64,-0.14,-0.22
50.6106,-1.1,-1.2,0.53,0.74,0.62,-0.13,-0.21
50.6306,0.39,-0.2,-0.32,0.79,0.58,-0.08,-0.2
50.6505,-2.06,-0.45,0.2,0.8,0.57,-0.06,-0.19
50.6707,-4.15,-1.67,0.2,0.81,0.56,-0.05,-0.19
50.696,-3.5,-0.14,0.07,0.81,0.55,-0.03,-0.19
50.7444,-1.07,1.11,-0.87,0.82,0.55,-0.02,-0.19
50.7611,-2.52,-2.8,-1.4,0.83,0.54,-0.01,-0.16
50.7813,-2.52,-3.29,-1.67,0.83,0.54,-0.01,-0.15
50.8397,-2.3,-2.25,-2.73,0.83,0.54,0.0,-0.15
50.851,-1.84,1.19,-3.45,0.82,0.56,0.02,-0.13
50.8762,-1.26,-0.16,-4.14,0.81,0.57,0.02,-0.13
50.9566,-2.83,-4.77,-4.99,0.81,0.58,0.02,-0.12
50.971,-0.3,-3.0,-6.21,0.77,0.62,0.03,-0.11
50.9907,-0.14,0.34,-6.0,0.77,0.63,0.03,-0.11
51.0523,0.72,2.16,-5.69,0.76,0.64,0.02,-0.11
51.0706,1.49,-1.26,-6.19,0.74,0.67,-0.01,-0.1
51.0906,1.62,0.1,-5.95,0.73,0.68,-0.02,-0.11
51.1106,2.14,0.72,-6.21,0.73,0.68,-0.03,-0.11
51.1305,2.39,0.59,-6.29,0.72,0.68,-0.04,-0.1
51.1606,2.44,-1.0,-6.27,0.72,0.68,-0.06,-0.1
51.1825,1.13,-0.56,-6.04,0.72,0.68,-0.07,-0.1
51.2006,0.63,-0.27,-5.46,0.72,0.68,-0.07,-0.1
51.2206,2.08,0.84,-5.37,0.72,0.69,-0.08,-0.11
51.241,1.93,1.98,-4.51,0.71,0.69,-0.09,-0.11
51.261,2.16,0.77,-3.81,0.71,0.69,-0.1,-0.12
51.3108,2.57,-0.84,-3.44,0.7,0.7,-0.11,-0.12
51.3307,3.35,-1.17,-1.53,0.67,0.71,-0.15,-0.14
51.3525,3.69,-1.16,-1.82,0.66,0.72,-0.16,-0.15
51.3706,4.64,-2.5,-1.39,0.64,0.73,-0.18,-0.16
51.3914,4.82,-3.33,-0.19,0.62,0.74,-0.2,-0.17
51.4626,0.91,-3.21,3.7,0.6,0.75,-0.22,-0.18
51.481,5.0,-3.52,9.72,0.52,0.78,-0.27,-0.21
51.5019,5.15,-3.45,12.75,0.5,0.79,-0.28,-0.22
51.5665,4.14,-4.08,12.91,0.49,0.79,-0.28,-0.22
51.5816,2.3,1.87,6.17,0.49,0.79,-0.29,-0.21
51.6005,2.41,0.57,2.71,0.5,0.79,-0.29,-0.22
51.6305,0.95,-0.44,0.77,0.5,0.78,-0.29,-0.23
51.6509,-0.46,-0.64,-0.16,0.51,0.78,-0.29,-0.23
51.7227,-0.99,-0.59,-0.47,0.51,0.77,-0.29,-0.24
51.7409,-0.18,0.47,-0.11,0.52,0.77,-0.28,-0.24
51.7606,0.42,0.76,-0.02,0.52,0.77,-0.28,-0.23
51.7806,0.07,0.17,-0.11,0.53,0.77,-0.28,-0.23
51.8009,0.89,-0.1,0.32,0.53,0.77,-0.28,-0.23
51.822,1.64,0.27,0.36,0.53,0.77,-0.27,-0.23
51.8418,1.58,0.51,0.7,0.53,0.77,-0.27,-0.23
51.9054,1.71,0.26,0.75,0.54,0.77,-0.27,-0.23
51.922,2.49,-0.18,1.91,0.55,0.76,-0.26,-0.23
51.9406,1.74,-0.39,2.33,0.56,0.76,-0.25,-0.22
51.9984,2.49,-0.5,2.29,0.57,0.75,-0.24,-0.22
52.0128,3.52,-1.0,2.46,0.6,0.74,-0.23,-0.22
52.032,2.67,-0.94,2.85,0.61,0.73,-0.22,-0.22
52.1014,1.96,-1.12,2.36,0.63,0.72,-0.2,-0.22
52.1205,3.41,-1.3,1.01,0.68,0.68,-0.16,-0.21
52.1419,1.31,-1.5,0.72,0.7,0.67,-0.14,-0.21
52.1956,0.02,-0.64,0.83,0.72,0.65,-0.12,-0.2
52.2121,-1.84,-1.42,0.58,0.76,0.61,-0.08,-0.19
52.232,-1.52,-2.47,0.26,0.78,0.6,-0.07,-0.19
52.2899,-0.49,-1.09,0.09,0.79,0.58,-0.05,-0.19
52.3018,-3.79,-0.51,-0.21,0.81,0.55,-0.02,-0.17
52.3223,-5.96,-1.95,0.6,0.82,0.54,-0.01,-0.17
52.3954,-5.39,-1.43,0.73,0.83,0.54,0.0,-0.16
52.4117,-3.74,-4.93,-3.66,0.83,0.55,0.02,-0.13
52.4318,-1.64,-1.46,-4.93,0.82,0.55,0.03,-0.14
52.4618,-0.52,-1.38,-5.75,0.81,0.57,0.04,-0.13
52.4824,-2.33,-1.74,-6.03,0.81,0.58,0.04,-0.12
52.5021,-2.25,-0.81,-6.42,0.8,0.59,0.04,-0.12
52.5814,0.54,0.14,-7.31,0.79,0.59,0.05,-0.12
52.6015,-1.85,2.39,-4.55,0.77,0.62,0.05,-0.11
52.6215,1.46,2.59,-5.51,0.76,0.63,0.05,-0.12
52.6415,2.84,0.88,-5.51,0.75,0.64,0.04,-0.13
52.6616,1.1,0.66,-4.81,0.75,0.65,0.03,-0.12
52.6815,1.04,0.32,-4.7,0.74,0.66,0.02,-0.12
52.7015,2.01,-0.57,-4.93,0.74,0.66,0.01,-0.12
52.7215,2.05,-1.17,-5.03,0.73,0.67,0.0,-0.12
52.7417,2.86,-0.57,-5.3,0.73,0.67,-0.01,-0.12
52.7615,3.04,0.04,-5.42,0.73,0.67,-0.01,-0.12
52.7823,1.97,-1.38,-5.3,0.73,0.68,-0.02,-0.12
52.8555,1.27,-1.55,-5.32,0.73,0.68,-0.03,-0.11
52.8715,2.12,0.01,-4.3,0.72,0.68,-0.07,-0.11
52.8922,0.05,0.05,-3.08,0.72,0.68,-0.08,-0.12
52.9514,-0.19,0.46,-2.84,0.71,0.69,-0.09,-0.12
52.9717,4.14,-1.37,-2.37,0.68,0.7,-0.13,-0.15
52.9919,2.69,-1.41,-1.57,0.67,0.71,-0.14,-0.16
53.0633,2.25,-3.09,-0.55,0.66,0.72,-0.16,-0.17
53.0815,1.63,-1.17,2.23,0.59,0.75,-0.21,-0.2
53.1015,2.48,-2.86,3.92,0.57,0.76,-0.23,-0.21
53.1733,4.12,-6.62,6.71,0.54,0.77,-0.25,-0.22
53.1919,3.52,-2.84,10.85,0.48,0.8,-0.28,-0.23
53.2127,2.4,-0.68,10.35,0.48,0.8,-0.28,-0.23
53.2315,1.73,2.28,8.42,0.48,0.8,-0.28,-0.23
53.2516,1.53,2.71,6.61,0.48,0.8,-0.29,-0.23
53.2715,0.64,-0.11,3.91,0.48,0.79,-0.29,-0.24
53.2915,-0.37,0.04,3.21,0.48,0.79,-0.28,-0.25
53.3115,0.37,0.79,1.56,0.49,0.79,-0.28,-0.25
53.3315,0.0,0.32,0.66,0.49,0.78,-0.28,-0.26
53.3515,-0.95,-1.36,-0.73,0.49,0.78,-0.29,-0.26
53.3716,-1.19,-1.78,-0.77,0.5,0.78,-0.29,-0.26
53.3943,0.39,-0.82,-0.77,0.5,0.78,-0.28,-0.26
53.4115,0.61,0.14,-0.28,0.5,0.78,-0.28,-0.26
53.4315,-0.11,-0.14,0.16,0.5,0.78,-0.28,-0.26
53.4515,-0.24,-0.69,0.33,0.51,0.78,-0.28,-0.26
53.4714,0.05,-0.31,0.83,0.51,0.78,-0.27,-0.26
53.4918,0.26,-0.05,1.03,0.51,0.78,-0.27,-0.25
53.5128,1.23,-0.55,1.11,0.51,0.78,-0.27,-0.25
53.5823,1.86,-0.52,2.13,0.52,0.78,-0.26,-0.25
53.6025,2.84,0.25,3.33,0.54,0.77,-0.25,-0.24
53.6228,3.99,-1.18,3.39,0.55,0.76,-0.24,-0.23
53.6926,4.68,-1.34,3.15,0.57,0.76,-0.23,-0.23
53.712,3.13,-0.94,2.08,0.63,0.72,-0.19,-0.22
53.7328,3.52,-1.34,1.26,0.65,0.7,-0.18,-0.21
53.8028,2.99,-1.4,1.21,0.68,0.69,-0.16,-0.21
53.8229,-0.36,-1.3,0.1,0.76,0.61,-0.08,-0.2
53.8428,-0.07,-0.68,-0.45,0.78,0.59,-0.06,-0.2
53.9107,0.62,0.24,-0.48,0.8,0.57,-0.04,-0.19
53.9231,-3.45,-0.4,-1.35,0.84,0.52,0.01,-0.18
53.9427,-3.81,-0.3,-1.84,0.84,0.51,0.02,-0.18
53.9621,0.17
53.9837,-3.71,-1.09,-2.33,0.85,0.5,0.04,-0.16
54.0032,-3.11,-0.87,-2.88,0.85,0.49,0.04,-0.16
54.0229,-3.71,-1.86,-2.79,0.86,0.49,0.04,-0.15
54.0883,-5.7,-3.16,-3.12,0.85,0.5,0.05,-0.14
54.1025,-3.07,-1.03,-4.65,0.83,0.53,0.06,-0.13
54.1225,-3.66,-2.24,-4.91,0.82,0.55,0.06,-0.12
54.1943,-2.85,-1.97,-5.54,0.81,0.57,0.06,-0.12
54.2125,-0.86,-1.06,-5.64,0.78,0.62,0.05,-0.11
54.2324,0.92,-1.16,-5.47,0.77,0.63,0.05,-0.11
54.2524,2.32,-0.41,-5.46,0.76,0.64,0.04,-0.11
54.2759,2.16,-0.87,-4.87,0.75,0.65,0.04,-0.11
54.2937,2.62,0.03,-4.35,0.74,0.66,0.03,-0.11
54.3124,3.07,1.22,-4.33,0.73,0.67,0.03,-0.11
54.3428,5.01,-0.26,-4.97,0.72,0.68,0.02,-0.11
54.3629,4.41,-0.17,-4.22,0.72,0.68,0.01,-0.11
54.383,4.89,-0.11,-5.03,0.72,0.69,0.0,-0.11
54.403,4.34,-0.37,-5.33,0.72,0.69,-0.01,-0.11
54.4226,2.94,-1.47,-5.83,0.72,0.69,-0.01,-0.1
54.4923,1.73,-1.92,-5.86,0.72,0.68,-0.02,-0.1
54.5045,-0.53,-0.0,-5.34,0.72,0.68,-0.04,-0.1
54.5233,0.88,-0.87,-5.78,0.72,0.68,-0.05,-0.1
54.5946,0.71,-0.84,-5.56,0.72,0.68,-0.06,-0.1
54.6125,0.09,-1.14,-4.09,0.69,0.71,-0.09,-0.14
54.6385,2.49,-0.28,-3.2,0.67,0.72,-0.11,-0.15
54.6626,3.54,-0.86,-1.72,0.64,0.73,-0.14,-0.17
54.6893,2.36,-4.1,-0.06,0.62,0.74,-0.17,-0.18
54.7182,5.06,-2.55,2.4,0.58,0.76,-0.2,-0.2
54.7964,5.45,-3.79,4.42,0.56,0.77,-0.22,-0.22
54.8044,3.62,-2.65,12.71,0.48,0.8,-0.27,-0.24
54.8231,4.1,-3.21,12.59,0.47,0.8,-0.28,-0.24
54.9024,3.55,-3.56,11.14,0.46,0.81,-0.29,-0.24
54.9238,-0.81,-2.34,3.9,0.47,0.79,-0.31,-0.26
54.9428,0.21,-3.02,2.44,0.47,0.79,-0.31,-0.26
54.9638,1.04,-1.3,1.21,0.47,0.78,-0.31,-0.26
55.0323,1.01,-1.09,0.73,0.48,0.78,-0.31,-0.26
55.0434,1.67,-0.21,0.59,0.5,0.77,-0.3,-0.25
55.0637,1.73,-0.51,0.9,0.5,0.77,-0.3,-0.25
55.0843,2.36,-0.31,0.77,0.51,0.77,-0.29,-0.24
55.1034,2.61,0.07,1.33,0.52,0.77,-0.28,-0.24
55.1238,2.89,0.36,1.52,0.53,0.77,-0.28,-0.24
55.1933,2.58,-0.29,1.71,0.54,0.76,-0.27,-0.23
55.2124,4.13,-0.79,1.67,0.58,0.74,-0.24,-0.22
55.2339,4.27,-1.02,0.93,0.6,0.74,-0.23,-0.21
55.2537,2.64,-0.77,1.31,0.62,0.73,-0.21,-0.21
55.3246,2.19,-0.67,1.04,0.64,0.72,-0.2,-0.2
55.3436,1.94,0.33,0.24,0.7,0.68,-0.14,-0.19
55.3638,-0.04,-1.46,-0.09,0.71,0.67,-0.12,-0.18
55.4334,-0.38,-2.28,-0.5,0.73,0.65,-0.1,-0.18
55.4556,-1.0,0.26,-0.56,0.77,0.61,-0.04,-0.15
55.4975,-2.21,-1.27,-1.14,0.78,0.6,-0.03,-0.15
55.5135,-3.61,0.39,-0.64,0.8,0.57,0.0,-0.15
55.5334,-2.37,0.23,-0.39,0.81,0.57,0.01,-0.15
55.5583,-1.4,-0.51,-0.83,0.82,0.56,0.02,-0.14
55.5755,-3.44,-0.97,-0.78,0.83,0.54,0.02,-0.14
55.5927,-6.31,-1.23,-0.81,0.83,0.54,0.03,-0.14
55.6184,-6.13,-0.3,-1.04,0.84,0.53,0.03,-0.14
55.6338,-3.99,0.42,-1.29,0.84,0.53,0.03,-0.14
55.6529,-3.98,-1.01,-1.43,0.84,0.53,0.03,-0.13
55.6741,-4.86,-2.77,-1.99,0.84,0.53,0.03,-0.13
55.7537,-4.21,-1.58,-2.25,0.84,0.54,0.03,-0.12
55.7735,-1.84,-0.38,-4.16,0.81,0.57,0.02,-0.12
55.7939,-0.17,-0.33,-4.89,0.8,0.59,0.02,-0.12
55.8142,-0.5,-2.07,-5.55,0.79,0.6,0.01,-0.11
55.8342,-1.37,-2.06,-5.41,0.78,0.61,0.01,-0.1
55.9133,0.08,0.56,-5.72,0.77,0.63,0.01,-0.11
55.9334,2.5,0.56,-6.06,0.74,0.67,-0.01,-0.09
55.9534,3.6,-0.26,-6.53,0.73,0.68,-0.02,-0.09
55.9803,2.43,-1.54,-5.74,0.72,0.69,-0.02,-0.09
55.9934,1.93,-0.81,-5.48,0.71,0.69,-0.03,-0.09
56.0168,2.87,-0.11,-6.02,0.71,0.7,-0.03,-0.09
56.0854,1.99,-0.05,-5.37,0.71,0.7,-0.04,-0.09
56.1035,1.68,1.05,-5.34,0.7,0.71,-0.06,-0.09
56.1238,1.57,0.13,-5.0,0.69,0.71,-0.07,-0.09
56.1523,1.53,0.43,-4.67,0.69,0.71,-0.07,-0.1
56.1734,0.8,0.26,-4.23,0.68,0.72,-0.09,-0.1
56.1934,2.3,-2.07,-4.4,0.68,0.72,-0.1,-0.11
56.2135,4.57,-2.41,-4.57,0.67,0.72,-0.11,-0.12
56.2833,1.44,-0.99,-3.54,0.67,0.73,-0.12,-0.12
56.2935,5.79,-2.48,-2.14,0.61,0.76,-0.15,-0.15
56.3135,6.38,-1.28,-1.47,0.59,0.77,-0.17,-0.16
56.3444,7.43,-0.84,1.39,0.57,0.78,-0.19,-0.17
56.3644,2.27,-4.29,9.23,0.54,0.79,-0.23,-0.19
56.3837,1.43,-7.61,12.06,0.52,0.8,-0.24,-0.21
56.4574,2.44,-7.87,13.31,0.5,0.8,-0.25,-0.21
56.4744,2.66,0.03,10.31,0.47,0.81,-0.27,-0.21
56.4937,0.51,-0.15,7.15,0.47,0.81,-0.27,-0.21
56.5633,-0.24,0.84,5.1,0.48,0.81,-0.27,-0.22
56.5834,1.95,-2.5,-0.71,0.5,0.79,-0.27,-0.23
56.6044,1.22,-1.06,-0.69,0.5,0.79,-0.27,-0.23
56.6267,0.77,0.1,-0.32,0.51,0.79,-0.26,-0.23
56.6444,1.2,0.24,-0.21,0.52,0.78,-0.26,-0.23
56.6644,1.11,0.32,0.95,0.52,0.78,-0.26,-0.23
56.7335,2.37,0.33,1.23,0.53,0.78,-0.26,-0.22
56.7542,4.07,0.21,2.14,0.56,0.76,-0.24,-0.22
56.8294,4.25,0.89,2.15,0.58,0.76,-0.23,-0.22
56.8443,2.77,-1.57,1.79,0.64,0.71,-0.2,-0.21
56.8647,3.4,-1.39,1.05,0.66,0.7,-0.18,-0.2
56.9357,2.68,0.19,1.56,0.68,0.69,-0.16,-0.2
56.959,0.86,-0.35,-1.11,0.75,0.63,-0.1,-0.19
57.0384,-0.04,0.14,-0.57,0.76,0.61,-0.08,-0.18
57.0464,-0.67,-0.79,-0.37,0.81,0.56,-0.05,-0.16
57.0646,-1.55,-3.16,-0.53,0.82,0.54,-0.04,-0.15
57.0954,-2.07,-4.66,-1.09,0.83,0.53,-0.04,-0.15
57.1144,-2.79,-1.22,-1.16,0.84,0.51,-0.01,-0.15
57.1398,-3.13,0.79,-1.34,0.85,0.5,0.01,-0.16
57.2104,-4.58,1.27,-0.84,0.86,0.49,0.01,-0.15
57.2247,-3.52,-0.5,-2.54,0.86,0.48,0.02,-0.14
57.2447,-3.12,-0.57,-2.86,0.86,0.49,0.02,-0.13
57.3166,-4.89,-2.24,-3.44,0.86,0.49,0.02,-0.13
57.3349,-1.62,-1.83,-5.46,0.84,0.53,0.02,-0.12
57.3548,-1.78,-0.95,-5.18,0.83,0.54,0.02,-0.12
57.4263,0.29,1.29,-5.0,0.82,0.56,0.02,-0.11
57.4448,1.98,2.42,-3.7,0.79,0.61,0.02,-0.11
57.4646,1.77,2.23,-2.38,0.78,0.62,0.01,-0.11
57.5326,1.32,-0.89,-2.14,0.77,0.63,0.0,-0.1
57.5447,2.42,2.28,-2.25,0.75,0.65,-0.01,-0.1
57.5665,0.73,-1.51,-2.64,0.75,0.66,-0.02,-0.09
57.6394,0.39,-1.05,-2.96,0.74,0.67,-0.02,-0.09
57.6544,3.67,-1.1,-5.95,0.72,0.69,-0.03,-0.09
57.6744,2.62,-1.81,-6.66,0.71,0.69,-0.04,-0.09
57.6993,2.32,-1.46,-6.86,0.71,0.69,-0.04,-0.09
57.7144,2.77,-1.11,-7.37,0.71,0.69,-0.04,-0.09
57.7344,2.16,-1.6,-7.71,0.72,0.69,-0.05,-0.09
57.7544,0.55,-1.88,-8.1,0.72,0.69,-0.05,-0.1
57.7745,-0.45,-1.33,-7.34,0.72,0.69,-0.05,-0.1
57.8093,1.85,-0.73,-7.48,0.72,0.69,-0.05,-0.11
57.8247,0.28,1.21,-5.52,0.71,0.69,-0.07,-0.11
57.847,-1.08,-1.09,-4.36,0.71,0.69,-0.08,-0.12
57.8653,-0.12,-1.8,-1.1,0.7,0.7,-0.09,-0.13
57.9467,2.29,-1.94,-0.86,0.69,0.71,-0.11,-0.13
57.9656,4.21,-3.96,1.94,0.62,0.75,-0.19,-0.17
57.9846,2.63,-3.96,1.75,0.59,0.76,-0.21,-0.18
58.0543,1.43,-4.0,3.03,0.57,0.77,-0.22,-0.19
58.0744,2.35,-3.95,12.59,0.48,0.8,-0.27,-0.21
58.0996,0.39,-0.18,13.79,0.47,0.81,-0.28,-0.21
58.1293,6.66,1.15,11.82,0.45,0.82,-0.29,-0.21
58.1453,7.15,1.34,9.54,0.44,0.82,-0.3,-0.21
58.1643,3.46,-0.42,7.51,0.45,0.81,-0.31,-0.22
58.1856,1.79,-0.51,5.81,0.45,0.8,-0.31,-0.23
58.2546,1.62,0.87,3.59,0.46,0.8,-0.31,-0.23
58.2807,-0.32,-1.01,0.88,0.48,0.78,-0.31,-0.25
58.2996,2.28,0.89,-0.74,0.49,0.78,-0.3,-0.25
58.3157,2.78,0.82,-0.21,0.49,0.78,-0.29,-0.26
58.3357,2.64,-0.18,0.2,0.5,0.77,-0.29,-0.27
58.4036,1.43,-1.5,0.96,0.51,0.77,-0.29,-0.27
58.4155,3.04,-1.11,0.81,0.53,0.76,-0.27,-0.26
58.4361,3.48,-0.22,1.23,0.54,0.75,-0.27,-0.26
58.5133,2.48,-0.36,1.46,0.55,0.75,-0.26,-0.25
58.5253,3.57,-0.39,1.22,0.6,0.73,-0.23,-0.24
58.5453,1.89,-0.55,1.5,0.61,0.72,-0.22,-0.24
58.5653,1.02,-0.86,1.12,0.63,0.71,-0.21,-0.23
58.5863,-0.33,-1.43,1.72,0.64,0.7,-0.2,-0.23
58.6184,-0.65,-1.4,2.04,0.65,0.7,-0.18,-0.23
58.6354,2.91,0.01,-0.06,0.67,0.69,-0.15,-0.23
58.6553,2.2,0.75,-0.82,0.68,0.68,-0.14,-0.23
58.6925,0.43,0.03,0.02,0.7,0.67,-0.12,-0.23
58.7075,0.39,-1.55,0.37,0.72,0.65,-0.11,-0.23
58.7254,1.16,-2.4,-0.52,0.73,0.63,-0.1,-0.23
58.7824,1.32,-2.77,-0.59,0.75,0.62,-0.09,-0.22
58.7954,-0.5,-0.52,-1.0,0.78,0.59,-0.07,-0.2
58.8194,-1.69,-1.09,-1.28,0.79,0.58,-0.07,-0.2
58.8354,-2.79,-1.46,-1.21,0.8,0.57,-0.06,-0.19
58.8563,-3.57,-1.64,-1.27,0.8,0.57,-0.05,-0.18
58.9374,-4.05,-0.87,-1.43,0.81,0.56,-0.05,-0.17
58.9554,-3.71,-3.77,-2.2,0.82,0.56,-0.03,-0.15
58.9757,-2.54,-1.24,-2.51,0.81,0.56,-0.02,-0.15
59.0494,-2.33,-0.29,-3.19,0.81,0.57,-0.01,-0.14
59.0657,-1.25,-2.7,-3.48,0.8,0.59,0.0,-0.12
59.0853,-1.68,-0.7,-3.7,0.79,0.6,0.01,-0.11
59.1184,-0.66,0.88,-3.75,0.78,0.61,0.02,-0.11
59.1356,-1.77,-0.08,-4.11,0.78,0.62,0.02,-0.1
59.1606,-0.93,-0.2,-4.22,0.77,0.63,0.02,-0.09
59.1754,-0.21,-0.56,-4.83,0.76,0.64,0.02,-0.09
59.1953,0.0,-0.06,-5.41,0.76,0.65,0.02,-0.08
59.2184,-0.15,1.02,-5.31,0.75,0.66,0.02,-0.08
59.2354,-0.12,1.03,-5.25,0.75,0.66,0.02,-0.08
59.2553,-0.2,-0.44,-4.81,0.74,0.67,0.01,-0.09
59.2903,0.62,-1.41,-5.59,0.74,0.67,0.01,-0.09
59.3056,2.07,0.18,-5.74,0.73,0.68,-0.0,-0.08
59.3257,2.52,-0.47,-6.07,0.72,0.69,-0.01,-0.08
59.3458,2.81,-0.5,-6.23,0.72,0.69,-0.02,-0.08
59.3689,2.8,0.35,-6.21,0.72,0.69,-0.03,-0.08
59.4466,2.64,1.0,-6.14,0.72,0.69,-0.04,-0.08
59.4659,2.52,-0.29,-4.7,0.7,0.7,-0.08,-0.1
59.4854,2.29,0.69,-3.56,0.7,0.71,-0.09,-0.11
59.5553,2.84,0.14,-3.76,0.69,0.71,-0.1,-0.12
59.5754,3.07,-0.55,-3.45,0.64,0.74,-0.16,-0.16
59.5973,4.19,1.01,-3.08,0.61,0.75,-0.18,-0.18
59.6363,2.5,-2.68,-0.21,0.59,0.75,-0.22,-0.18
59.6553,5.22,-11.19,4.57,0.54,0.77,-0.27,-0.21
59.6753,6.08,-8.41,7.67,0.52,0.78,-0.28,-0.22
59.7093,5.66,-4.31,11.41,0.5,0.79,-0.28,-0.23
59.7257,4.27,-2.02,12.31,0.48,0.8,-0.3,-0.22
59.7466,4.43,-0.51,11.81,0.47,0.8,-0.3,-0.21
59.7658,4.69,0.59,10.16,0.47,0.8,-0.3,-0.21
59.8353,2.61,0.18,9.12,0.47,0.8,-0.31,-0.21
59.8563,1.48,-0.42,1.96,0.49,0.79,-0.3,-0.23
59.8759,1.36,-3.3,1.71,0.49,0.78,-0.3,-0.23
59.8966,2.61,-3.37,1.22,0.5,0.78,-0.29,-0.23
59.9663,3.18,-1.22,0.05,0.51,0.78,-0.29,-0.23
59.9867,2.89,-1.09,0.39,0.55,0.76,-0.27,-0.23
60.0072,2.45,0.25,0.64,0.56,0.76,-0.26,-0.22
60.0266,2.02,1.32,0.84,0.57,0.75,-0.25,-0.22
60.0466,1.91,1.89,1.94,0.59,0.75,-0.23,-0.22
60.067,3.25,1.01,1.55,0.6,0.74,-0.22,-0.22
60.0883,2.82,-0.01,1.48,0.62,0.73,-0.21,-0.21
60.1255,1.75,-0.97,1.99,0.63,0.72,-0.2,-0.21
60.1463,1.6,0.01,1.76,0.66,0.7,-0.16,-0.22
60.1687,2.51,0.73,1.37,0.68,0.69,-0.15,-0.22
60.1854,2.44,-0.4,0.83,0.7,0.67,-0.14,-0.22
60.2067,0.78,-2.14,1.18,0.71,0.65,-0.13,-0.22
60.2266,-1.31,-3.51,0.43,0.73,0.64,-0.12,-0.22
60.2466,-1.56,-2.87,0.35,0.75,0.62,-0.1,-0.22
60.2686,0.66,0.11,-0.64,0.76,0.61,-0.08,-0.22
60.3454,0.35,0.65,-0.68,0.78,0.59,-0.07,-0.22
60.3568,-3.22,-2.41,-1.2,0.82,0.53,-0.04,-0.2
60.3767,-4.27,-1.0,-1.45,0.83,0.52,-0.02,-0.2
60.4504,-5.38,0.56,-1.04,0.84,0.51,-0.01,-0.2
60.4667,-2.38,-2.36,-2.52,0.85,0.5,-0.01,-0.17
60.4866,-2.33,0.09,-3.2,0.85,0.5,-0.0,-0.16
60.5594,0.08,1.32,-3.55,0.85,0.51,-0.0,-0.15
60.5762,-0.64,1.84,-5.7,0.83,0.53,0.01,-0.14
60.5962,2.4,2.48,-6.81,0.83,0.54,0.02,-0.14
60.6353,1.84,1.15,-6.75,0.82,0.55,0.01,-0.13
60.6566,0.55,0.41,-6.41,0.81,0.57,0.01,-0.13
60.6813,2.34,1.02,-6.43,0.8,0.58,0.0,-0.13
60.6963,0.26,-0.15,-5.68,0.79,0.59,-0.0,-0.13
60.7394,-0.03,0.04,-5.73,0.79,0.61,-0.01,-0.12
60.7563,0.23,-0.09,-5.16,0.77,0.62,-0.03,-0.12
60.7763,-0.17,-0.61,-5.05,0.76,0.63,-0.03,-0.12
60.8074,-0.18,0.21,-5.14,0.76,0.64,-0.04,-0.12
60.8263,1.64,-0.34,-5.29,0.74,0.66,-0.05,-0.12
60.8493,1.45,-1.18,-5.14,0.74,0.66,-0.06,-0.11
60.8665,2.07,-1.24,-5.28,0.73,0.67,-0.07,-0.11
60.9094,1.89,-1.04,-4.75,0.72,0.68,-0.07,-0.12
60.9263,3.38,0.2,-4.52,0.7,0.7,-0.09,-0.12
60.9465,2.95,0.84,-3.93,0.69,0.71,-0.1,-0.12
60.9665,2.88,-0.49,-3.01,0.68,0.71,-0.11,-0.13
61.0094,4.28,-1.24,-2.12,0.67,0.72,-0.13,-0.13
61.0263,2.83,-1.02,1.0,0.65,0.73,-0.15,-0.14
61.0466,2.72,-0.89,2.73,0.64,0.74,-0.16,-0.14
61.0874,4.11,-0.32,3.58,0.62,0.75,-0.17,-0.14
61.1063,4.67,1.05,5.89,0.6,0.76,-0.2,-0.15
61.1293,3.92,0.76,6.66,0.6,0.76,-0.21,-0.15
61.1657,4.06,-0.68,7.15,0.59,0.76,-0.23,-0.16
61.1873,2.79,-0.66,7.3,0.58,0.76,-0.24,-0.18
61.2063,2.3,0.79,6.66,0.58,0.75,-0.25,-0.18
61.2273,0.96,1.01,6.11,0.58,0.75,-0.25,-0.2
61.2463,0.28,-0.31,4.82,0.58,0.74,-0.26,-0.21
61.2686,-0.23,-0.96,4.2,0.59,0.74,-0.26,-0.22
61.3013,-0.55,-1.67,3.06,0.59,0.73,-0.26,-0.23
61.3163,-0.62,-0.81,2.22,0.6,0.72,-0.26,-0.24
61.3376,-1.16,-0.54,1.63,0.6,0.71,-0.25,-0.25
61.3713,-1.69,-0.95,1.26,0.61,0.71,-0.25,-0.26
61.3866,-0.61,-0.82,0.68,0.61,0.7,-0.25,-0.27
61.4062,1.06,-1.18,0.23,0.62,0.69,-0.24,-0.28
61.4494,1.43,-1.6,-0.11,0.62,0.69,-0.24,-0.29
61.4668,0.45,-1.19,-0.3,0.63,0.68,-0.23,-0.3
61.488,-0.3,-0.92,-0.16,0.64,0.67,-0.23,-0.3
61.5075,0.15,-0.63,-0.6,0.64,0.67,-0.23,-0.31
61.5524,0.3,-0.5,-0.75,0.65,0.66,-0.22,-0.31
61.5673,0.16,-0.74,-0.89,0.66,0.65,-0.22,-0.31
61.5863,-0.52,-1.2,-0.79,0.66,0.65,-0.21,-0.32
61.6254,-0.58,-0.89,-0.66,0.66,0.65,-0.21,-0.32
61.6477,0.13,0.31,-0.99,0.67,0.64,-0.2,-0.32
61.6706,-0.47,-0.77,-1.18,0.67,0.64,-0.2,-0.32
61.6877,-0.54,-0.93,-0.75,0.68,0.63,-0.19,-0.32
61.7614,-0.26,-0.87,-0.7,0.68,0.63,-0.19,-0.32
61.7777,0.02,-0.68,-0.92,0.69,0.63,-0.18,-0.32
61.7973,-0.09,-0.87,-1.02,0.69,0.63,-0.18,-0.32
61.8654,-0.28,-0.32,-0.8,0.69,0.63,-0.17,-0.32
61.8772,-0.59,0.16,-0.88,0.7,0.62,-0.17,-0.31
61.8973,-0.29,-0.13,-0.62,0.7,0.62,-0.17,-0.31
61.9174,-0.44,-0.33,-0.45,0.7,0.62,-0.16,-0.31
61.9473,-1.01,-0.58,-0.35,0.7,0.62,-0.16,-0.31
61.9674,-0.25,-0.01,-0.34,0.7,0.62,-0.16,-0.31
62.0164,-0.09,0.03,-0.15,0.7,0.62,-0.16,-0.3
62.0373,-0.21,-0.84,0.03,0.71,0.62,-0.16,-0.3
62.0573,0.23,-0.3,-0.16,0.71,0.62,-0.16,-0.29
62.0772,0.12,-0.07,0.14,0.71,0.62,-0.16,-0.29
62.0974,-0.2,-0.36,0.23,0.71,0.62,-0.16,-0.29
